Folder: InES-Datenverarbeitung/SAMPLE-MPT/20220309_SSB_Cell_03_Form01 (part 3)

File: 20220309_(Form02C)EIS_charging_10bis16V_step_01V+(1C+EIS)50cycle_05_GEIS_C08.mpt
EC-Lab ASCII FILE
Nb header lines : 72

Galvano Electrochemical Impedance Spectroscopy

Run on channel : 8 (SN 14384)
User :
CE vs. WE compliance from -10 V to 10 V
Electrode connection : standard
Potential control : Ewe-Ece
Ewe ctrl range : min = 0,00 V, max = 5,00 V
Safety Limits :
	Do not start on E overload
Acquisition started on : 03/09/2022 13:55:05.456
Technique started on : 03/09/2022 16:59:47.281
Loaded Setting File :  C:\DATA\x_Data_VMP3\Extern\InES\Binbin\001_Testing_Profiles\20220308_(Form02C)EIS_charging_10bis16V_step_01V+(1C+EIS)50cycle.mps
Saved on :
	File : 20220309_(Form02C)EIS_charging_10bis16V_step_01V+(1C+EIS)50cycle_05_GEIS_C08.mpr
	Directory : C:\DATA\x_Data_VMP3\Extern\InES\Binbin\20220309_SSB_Cell_03_Form01\
	Host : 134.169.45.143
Device : VMP3 (SN 0787)
Address : 134.169.45.150
EC-Lab for windows v11.42 (software)
Internet server v11.40 (firmware)
Command interpretor v11.40 (firmware)
Electrode material :
Initial state :
Electrolyte :
Comments :
Electrode surface area : 0,000 cm²
Characteristic mass : 0,001 g
Equivalent Weight : 0,000 g/eq.
Density : 0,000 g/cm3
Volume (V) : 0,001 cm³
Record Ece
Record Power
Cycle Definition : Charge/Discharge alternance
Mode                Single sine
Is                  0,000
unit Is             µA
vs.                 <None>
tIs (h:m:s)         0:00:0,0000
record              0
dE (mV)             0,000
dt (s)              0,000
fi                  1,000
unit fi             MHz
ff                  5,000
unit ff             mHz
Nd                  6
Points              per decade
spacing             Logarithmic
Ia/Va               Ia
Ia                  5,000
unit  Ia            µA
va pourcent         0,10
pw                  0,10
Na                  2
corr                0
E range min (V)     0,000
E range max (V)     5,000
I Range             10 µA
Bandwidth           5
nc cycles           0
goto Ns'            0
nr cycles           0
inc. cycle          0

Number of loops : 1
Loop 0 from point number 0 to 49

freq/Hz	Re(Z)/Ohm	-Im(Z)/Ohm	|Z|/Ohm	Phase(Z)/deg	time/s	<Ewe>/V	<I>/mA	Cs/µF	Cp/µF	cycle number	|Ewe|/V	|I|/A	Ns	I Range	(Q-Qo)/mA.h	<Ece>/V	|Ece|/V	Phase(Zce)/deg	|Zce|/Ohm	Re(Zce)/Ohm	-Im(Zce)/Ohm	Phase(Zwe-ce)/deg	|Zwe-ce|/Ohm	Re(Zwe-ce)/Ohm	-Im(Zwe-ce)/Ohm	P/W	Re(Y)/Ohm-1	Im(Y)/Ohm-1	|Y|/Ohm-1	Phase(Y)/deg	dq/mA.h
1,0000186E+006	-2,9032774E+001	4,7667931E+001	5,5813381E+001	-1,2134405E+002	1,108182518641948E+004	1,3580703E+001	1,0931889E-005	3,3387644E-003	2,4353517E-003	1,000000000000000E+000	2,8971586E-004	5,1907955E-006	0	14	1,009298577175046E-009	1,2607504E+001	2,0380924E-004	4,0337555E+001	3,9263584E+001	2,9928440E+001	-2,5414907E+001	-8,7695137E+001	2,2271040E+001	8,9566612E-001	2,2253023E+001	0,0000000E+000	-9,3199126E-003	1,5302051E-002	1,7916851E-002	1,2134405E+002	1,009298577175046E-009
3,1029172E+005	1,2362986E+001	3,7230179E+001	3,9229195E+001	-7,1630280E+001	1,108311118648056E+004	1,3580735E+001	1,4843825E-005	1,3777005E-002	1,2408700E-002	1,000000000000000E+000	1,9059466E-004	4,8584902E-006	0	14	1,090043546494396E-008	1,2605579E+001	1,8942727E-004	-3,3131981E+001	3,8988918E+001	3,2649857E+001	2,1310152E+001	-5,2442589E+001	7,3845284E+001	4,5012840E+001	5,8540329E+001	0,0000000E+000	8,0334945E-003	2,4192255E-002	2,5491219E-002	7,1630280E+001	7,245592607167358E-009
9,6283031E+004	7,8931541E+000	-8,3966303E+000	1,1524117E+001	4,6770306E+001	1,108400418652297E+004	1,3580560E+001	1,7273373E-005	-1,9686358E-001	-1,0451053E-001	1,000000000000000E+000	5,5487624E-005	4,8149132E-006	0	14	4,380845443342373E-010	1,2607344E+001	4,2361856E-004	-5,5245132E+001	8,7980522E+001	5,0154755E+001	7,2284668E+001	-4,7742088E+001	8,6320572E+001	5,8047909E+001	6,3888039E+001	0,0000000E+000	5,9434038E-002	-6,3225128E-002	8,6774543E-002	-4,6770306E+001	-2,297108109827504E-009
2,9876783E+004	-1,4077889E+000	-3,7966955E+000	4,0492921E+000	1,1034444E+002	1,108515918657783E+004	1,3580798E+001	1,4354953E-005	-1,4030739E+000	-1,2334850E+000	1,000000000000000E+000	1,9180810E-005	4,7368308E-006	0	14	4,732586319783472E-009	1,2607224E+001	8,5955468E-004	-5,3659092E+001	1,8146198E+002	1,0753226E+002	1,4616859E+002	-5,3299034E+001	1,7757298E+002	1,0612447E+002	1,4237190E+002	0,0000000E+000	-8,5857712E-002	-2,3155148E-001	2,4695675E-001	-1,1034444E+002	-2,506115498337952E-009
9,2692256E+003	1,5913702E+000	1,0854647E+000	1,9263159E+000	-3,4297680E+001	1,108631418663269E+004	1,3580742E+001	1,8626934E-005	1,5818342E+001	5,0227017E+000	1,000000000000000E+000	9,1541497E-006	4,7521539E-006	0	14	3,367556605427227E-009	1,2609028E+001	1,7521974E-003	-5,3932007E+001	3,6871646E+002	2,1707994E+002	2,9804050E+002	-5,3831921E+001	3,7053137E+002	2,1867131E+002	2,9912598E+002	0,0000000E+000	4,2886066E-001	2,9252344E-001	5,1912564E-001	3,4297680E+001	5,151998401680026E-009
2,8779956E+003	3,4031868E+000	6,5018749E-001	3,4647400E+000	-1,0816161E+001	1,108752618669026E+004	1,3580507E+001	5,5710216E-006	8,5053337E+001	2,9952102E+000	1,000000000000000E+000	1,5931479E-005	4,5981742E-006	0	14	1,322118813017268E-008	1,2609950E+001	3,4770817E-003	-5,0448021E+001	7,5618744E+002	4,8152353E+002	5,8305621E+002	-5,0281158E+001	7,5885907E+002	4,8492673E+002	5,8370642E+002	0,0000000E+000	2,8349438E-001	5,4162323E-002	2,8862193E-001	1,0816161E+001	-1,080694297949471E-010
8,9299957E+002	8,3847308E-001	-1,1969859E-001	8,4697396E-001	8,1245251E+000	1,108909318676469E+004	1,3580359E+001	4,8246284E-006	-1,4889490E+003	-2,9738415E+001	1,000000000000000E+000	4,0580835E-006	4,7912731E-006	0	14	1,199232666183687E-008	1,2604778E+001	6,7618084E-003	-4,3039795E+001	1,4112759E+003	1,0314731E+003	9,6320447E+002	-4,3013020E+001	1,4118073E+003	1,0323116E+003	9,6308478E+002	0,0000000E+000	1,1688237E+000	-1,6685872E-001	1,1806738E+000	-8,1245251E+000	-3,679986887921891E-010
2,7686047E+002	4,8215613E+000	-6,0218555E-001	4,8590207E+000	7,1190534E+000	1,109042418682791E+004	1,3580201E+001	5,9692306E-006	-9,5461633E+002	-1,4661959E+001	1,000000000000000E+000	2,3156512E-005	4,7656745E-006	0	14	1,449378769300185E-008	1,2620934E+001	1,1178806E-002	-3,4461338E+001	2,3456924E+003	1,9340426E+003	1,3273101E+003	-3,4382690E+001	2,3493293E+003	1,9388641E+003	1,3267079E+003	0,0000000E+000	2,0421620E-001	-2,5505440E-002	2,0580278E-001	-7,1190534E+000	5,651639205300270E-011
8,5907173E+001	3,0430396E+000	-1,3097851E+001	1,3446702E+001	7,6920441E+001	1,109175418689108E+004	1,3580235E+001	8,2240840E-006	-1,4144600E+002	-1,3420206E+002	1,000000000000000E+000	6,4059539E-005	4,7639592E-006	0	14	2,230811903099392E-008	1,2595036E+001	1,6583739E-002	-2,6422586E+001	3,4810833E+003	3,1174368E+003	1,5490411E+003	-2,6207048E+001	3,4780044E+003	3,1204797E+003	1,5359432E+003	0,0000000E+000	1,6829690E-002	-7,2438344E-002	7,4367680E-002	-7,6920441E+001	3,833100566251032E-009
2,6682035E+001	8,4125223E+000	2,8457763E+000	8,8808203E+000	-1,8689579E+001	1,109308218695415E+004	1,3580153E+001	5,8968267E-006	2,0960439E+003	2,1522650E+002	1,000000000000000E+000	4,2308016E-005	4,7639764E-006	0	14	1,709785720577707E-008	1,2597642E+001	2,2090690E-002	-1,8089645E+001	4,6370273E+003	4,4078276E+003	1,4398185E+003	-1,8090792E+001	4,6459077E+003	4,4162402E+003	1,4426643E+003	0,0000000E+000	1,0666454E-001	3,6082331E-002	1,1260221E-001	1,8689579E+001	2,249708272857890E-009
[...]
2,5682116E+000	1,0163430E+001	-2,9417644E+000	1,0580609E+001	1,6142876E+001	1,109629318710667E+004	1,3580208E+001	6,3080897E-006	-2,1065969E+004	-1,6284553E+003	1,000000000000000E+000	5,0389597E-005	4,7624476E-006	0	14	8,711153702918434E-008	1,2618369E+001	2,8344406E-002	-6,9755459E+000	5,9516470E+003	5,9075933E+003	7,2280200E+002	-6,9356184E+000	5,9613794E+003	5,9177568E+003	7,1986023E+002	0,0000000E+000	9,0786017E-002	-2,6277650E-002	9,4512515E-002	-1,6142876E+001	1,216678918219965E-008
7,9621863E-001	1,1782197E+001	4,9488750E+000	1,2779340E+001	-2,2783861E+001	1,110199918737769E+004	1,3580176E+001	7,1309792E-006	4,0390695E+004	6,0572773E+003	1,000000000000000E+000	6,0864619E-005	4,7627359E-006	0	14	-2,203747853315829E-007	1,2621455E+001	3,0438675E-002	-6,1024156E+000	6,3910063E+003	6,3547915E+003	6,7940228E+002	-6,1352391E+000	6,4032490E+003	6,3665737E+003	6,8435114E+002	0,0000000E+000	7,2145529E-002	3,0303279E-002	7,8251302E-002	2,2783861E+001	-1,051386301401623E-007
2,4724665E-001	9,8386698E+000	4,8146385E-001	9,8504429E+000	-2,8015840E+000	1,112025218824466E+004	1,3580106E+001	6,9889115E-006	1,3369835E+006	3,1940513E+003	1,000000000000000E+000	4,6909743E-005	4,7621966E-006	0	14	6,985033132462175E-007	1,2583530E+001	3,2745104E-002	-7,6128674E+000	6,8760508E+003	6,8154438E+003	9,1093225E+002	-7,6059923E+000	6,8858667E+003	6,8252827E+003	9,1141370E+002	0,0000000E+000	1,0139695E-001	4,9619479E-003	1,0151828E-001	2,8015840E+000	5,855558932825917E-007
7,6773763E-002	3,0864880E+001	-1,5636853E+001	3,4599884E+001	2,6867817E+001	1,117894919103262E+004	1,3580344E+001	6,9695466E-006	-1,3257388E+005	-2,7077426E+004	1,000000000000000E+000	1,6477294E-004	4,7622393E-006	0	14	6,422656261135620E-007	1,2651163E+001	3,5941981E-002	-8,2090998E+000	7,5472856E+003	7,4699526E+003	1,0776477E+003	-8,0587158E+000	7,5756274E+003	7,5008174E+003	1,0620109E+003	0,0000000E+000	2,5781922E-002	-1,3061712E-002	2,8901830E-002	-2,6867817E+001	-9,017951557965680E-007
2,3795672E-002	1,9348331E+001	1,4731649E+001	2,4318295E+001	-3,7285328E+001	1,136806020001491E+004	1,3580294E+001	6,9971138E-006	4,5401563E+005	1,6661239E+005	1,000000000000000E+000	1,1580140E-004	4,7619046E-006	0	14	-7,979774895125830E-006	1,2658339E+001	4,2200189E-002	-9,7301855E+000	8,8620400E+003	8,7345557E+003	1,4977615E+003	-9,8027411E+000	8,8836074E+003	8,7539043E+003	1,5124932E+003	0,0000000E+000	3,2717288E-002	2,4910657E-002	4,1121304E-002	3,7285328E+001	-2,694524645323377E-006
7,3873415E-003	7,4523148E+001	-6,5396595E-001	7,4526016E+001	5,0277704E-001	1,197735522895487E+004	1,3580009E+001	6,8720979E-006	-3,2944038E+007	-2,5367126E+003	1,000000000000000E+000	3,5490593E-004	4,7621752E-006	0	14	2,268767139282532E-005	1,2620092E+001	4,6945445E-002	-1,2559208E+001	9,8579834E+003	9,6220996E+003	2,1436025E+003	-1,2462029E+001	9,9305957E+003	9,6966230E+003	2,1429485E+003	0,0000000E+000	1,3417616E-002	-1,1774415E-004	1,3418133E-002	-5,0277704E-001	1,907471252376978E-005
5,0018891E-003	3,7275921E+001	-3,1196135E+001	4,8607540E+001	3,9925888E+001	1,239869724896754E+004	1,3579859E+001	5,7805964E-006	-1,0199651E+006	-4,2012600E+005	1,000000000000000E+000	2,3144897E-004	4,7615858E-006	0	14	4,610838086927813E-005	1,2639175E+001	4,7788657E-002	-1,2530292E+001	1,0036290E+004	9,7972402E+003	2,1774307E+003	-1,2310918E+001	1,0065984E+004	9,8345166E+003	2,1462346E+003	0,0000000E+000	1,5776878E-002	-1,3203635E-002	2,0572940E-002	-3,9925888E+001	2,342070947645281E-005

File: 20220309_(Form02C)EIS_charging_10bis16V_step_01V+(1C+EIS)50cycle_06_GCPL6_C08.mpt
EC-Lab ASCII FILE
Nb header lines : 76

Galvanostatic Cycling with Potential Limitation 6

Run on channel : 8 (SN 14384)
User :
CE vs. WE compliance from -10 V to 10 V
Electrode connection : standard
Potential control : Ewe-Ece
Ecell ctrl range : min = 0,00 V, max = 5,00 V
Safety Limits :
	Do not start on E overload
Acquisition started on : 03/09/2022 13:55:05.456
Technique started on : 03/09/2022 17:21:44.205
Loaded Setting File :  C:\DATA\x_Data_VMP3\Extern\InES\Binbin\001_Testing_Profiles\20220308_(Form02C)EIS_charging_10bis16V_step_01V+(1C+EIS)50cycle.mps
Saved on :
	File : 20220309_(Form02C)EIS_charging_10bis16V_step_01V+(1C+EIS)50cycle_06_GCPL6_C08.mpr
	Directory : C:\DATA\x_Data_VMP3\Extern\InES\Binbin\20220309_SSB_Cell_03_Form01\
	Host : 134.169.45.143
Device : VMP3 (SN 0787)
Address : 134.169.45.150
EC-Lab for windows v11.42 (software)
Internet server v11.40 (firmware)
Command interpretor v11.40 (firmware)
Electrode material :
Initial state :
Electrolyte :
Comments :
Electrode surface area : 0,000 cm²
Characteristic mass : 0,001 g
Equivalent Weight : 0,000 g/eq.
Density : 0,000 g/cm3
Volume (V) : 0,001 cm³
Record Ece
Record Power
Cycle Definition : Charge/Discharge alternance
Ns                  0                   1
Set I/C             I                   I
Is                  0,000               20,000
unit Is             mA                  µA
vs.                 <None>              <None>
N                   1,00                1,00
I sign              > 0                 > 0
t1 (h:m:s)          0:00:0,0000         20:00:0,0000
I Range             100 µA              100 µA
Bandwidth           5                   5
dE1 (mV)            0,00                0,00
dt1 (s)             0,0000              5,0000
EM (V)              0,000               1,200
tM (h:m:s)          0:00:0,0000         10:00:0,0000
Im                  0,000               10,000
unit Im             mA                  µA
dI/dt               0,000               0,000
dunit dI/dt         mA/s                mA/s
E range min (V)     0,000               0,000
E range max (V)     5,000               5,000
dq                  0,000               1,000
unit dq             mA.h                mA.h
dtq (s)             0,0000              120,0000
dQM                 0,000               0,000
unit dQM            mA.h                mA.h
dxM                 0,000               0,000
delta SoC (%)       pass                pass
tR (h:m:s)          0:00:10,0000        0:01:0,0000
dER/dt (mV/h)       0,0                 0,1
dER (mV)            0,00                0,00
dtR (s)             1,0000              120,0000
EL (V)              pass                pass
goto Ns'            0                   0
nc cycles           0                   0

Number of loops : 1
Loop 0 from point number 0 to 89

mode	ox/red	error	control changes	Ns changes	counter inc.	Ns	time/s	dq/mA.h	(Q-Qo)/mA.h	control/V/mA	Ewe/V	I Range	Q charge/discharge/mA.h	half cycle	Ece/V	P/W	Energy charge/W.h	Energy discharge/W.h	Capacitance charge/µF	Capacitance discharge/µF	<I>/mA	Q discharge/mA.h	Q charge/mA.h	Capacity/mA.h	Efficiency/%	control/V	control/mA	cycle number	 Ecell/V
3	1	0	0	0	0	0	1,239874904896997E+004	0,000000000000000E+000	0,000000000000000E+000	0,0000000E+000	1,0514146E+001	14	0,000000000000000E+000	0	1,3593764E+001	0,0000000E+000	0,000000000000000E+000	0,000000000000000E+000	0,000000000000000E+000	0,000000000000000E+000	0,000000000000000E+000	0,000000000000000E+000	0,000000000000000E+000	0,000000000000000E+000	0,0000000E+000	0,0000000E+000	0,0000000E+000	0,000000000000000E+000	-3,0796185E+000
3	1	0	0	0	0	0	1,240274904892154E+004	0,000000000000000E+000	0,000000000000000E+000	0,0000000E+000	1,4498035E+001	14	0,000000000000000E+000	0	1,3581117E+001	0,0000000E+000	0,000000000000000E+000	0,000000000000000E+000	0,000000000000000E+000	0,000000000000000E+000	0,000000000000000E+000	0,000000000000000E+000	0,000000000000000E+000	0,000000000000000E+000	0,0000000E+000	0,0000000E+000	0,0000000E+000	0,000000000000000E+000	9,1691875E-001
3	1	0	0	0	0	0	1,240674904887311E+004	0,000000000000000E+000	0,000000000000000E+000	0,0000000E+000	1,4496872E+001	14	0,000000000000000E+000	0	1,3581598E+001	0,0000000E+000	0,000000000000000E+000	0,000000000000000E+000	0,000000000000000E+000	0,000000000000000E+000	0,000000000000000E+000	0,000000000000000E+000	0,000000000000000E+000	0,000000000000000E+000	0,0000000E+000	0,0000000E+000	0,0000000E+000	0,000000000000000E+000	9,1527367E-001
1	1	0	1	0	0	1	1,241374924878836E+004	2,785982017984821E-005	2,786204030571712E-005	2,0000001E-002	1,3581547E+001	13	2,786204030571712E-005	0	1,2493662E+001	2,7243322E-004	3,784027938782303E-007	0,000000000000000E+000	3,269978307823600E+001	0,000000000000000E+000	2,005907077234976E-002	0,000000000000000E+000	2,786204030571712E-005	2,786204030571712E-005	0,0000000E+000	0,0000000E+000	2,0000001E-002	0,000000000000000E+000	1,0878849E+000
1	1	0	1	0	0	1	1,243374924854621E+004	2,785976566529522E-005	1,393013556167069E-004	2,0000001E-002	1,3580263E+001	13	1,393013556167069E-004	0	1,2456457E+001	2,7240693E-004	1,891753496178347E-006	0,000000000000000E+000	1,635569788534756E+002	0,000000000000000E+000	2,005903152187113E-002	0,000000000000000E+000	1,393013556167069E-004	1,393013556167069E-004	0,0000000E+000	0,0000000E+000	2,0000001E-002	0,000000000000000E+000	1,1238060E+000
1	1	0	1	0	0	1	1,245374924830407E+004	2,785992083398418E-005	2,507408832652080E-004	2,0000001E-002	1,3580103E+001	13	2,507408832652080E-004	0	1,2438858E+001	2,7240525E-004	3,405234401951431E-006	0,000000000000000E+000	2,944161184658368E+002	0,000000000000000E+000	2,005914324332854E-002	0,000000000000000E+000	2,507408832652080E-004	2,507408832652080E-004	0,0000000E+000	0,0000000E+000	2,0000001E-002	0,000000000000000E+000	1,1412449E+000
1	1	0	1	0	0	1	1,247374924806193E+004	2,785947671843072E-005	3,621792603318269E-004	2,0000001E-002	1,3579662E+001	13	3,621792603318269E-004	0	1,2426270E+001	2,7239206E-004	4,918537743618139E-006	0,000000000000000E+000	4,253264822296915E+002	0,000000000000000E+000	2,005882348012617E-002	0,000000000000000E+000	3,621792603318269E-004	3,621792603318269E-004	0,0000000E+000	0,0000000E+000	2,0000001E-002	0,000000000000000E+000	1,1533928E+000
1	1	0	1	0	0	1	1,249374924781978E+004	2,785934594635748E-005	4,736166827928068E-004	2,0000001E-002	1,3580865E+001	13	4,736166827928068E-004	0	1,2417249E+001	2,7241488E-004	6,431888406462821E-006	0,000000000000000E+000	5,559753036967954E+002	0,000000000000000E+000	2,005872932423231E-002	0,000000000000000E+000	4,736166827928068E-004	4,736166827928068E-004	0,0000000E+000	0,0000000E+000	2,0000001E-002	0,000000000000000E+000	1,1636162E+000
1	1	0	1	0	0	1	1,251374924757764E+004	2,785922417427517E-005	5,850537002531605E-004	2,0000001E-002	1,3579422E+001	13	5,850537002531603E-004	0	1,2407948E+001	2,7238476E-004	7,945268241690454E-006	0,000000000000000E+000	6,871137283028984E+002	0,000000000000000E+000	2,005864164833198E-002	0,000000000000000E+000	5,850537002531603E-004	5,850537002531603E-004	0,0000000E+000	0,0000000E+000	2,0000001E-002	0,000000000000000E+000	1,1714745E+000
[...]
2	1	0	0	0	0	1	1,346743463603119E+004	5,114338103058334E-004	5,121304691820664E-003	1,1999834E+000	1,3579582E+001	13	5,121304691820664E-003	0	1,2382852E+001	2,0835172E-004	6,954991224386028E-005	0,000000000000000E+000	6,014379261550482E+003	0,000000000000000E+000	1,534301449493585E-002	0,000000000000000E+000	5,121304691820664E-003	5,121304691820664E-003	0,0000000E+000	1,1999834E+000	0,0000000E+000	0,000000000000000E+000	1,1967306E+000
2	1	0	0	0	0	1	1,394743463021974E+004	4,705593441133387E-004	7,063229821240943E-003	1,1999834E+000	1,3579662E+001	13	7,063229821240944E-003	0	1,2382852E+001	1,9170111E-004	9,592073204449709E-005	0,000000000000000E+000	8,294728666395335E+003	0,000000000000000E+000	1,411678049431475E-002	0,000000000000000E+000	7,063229821240944E-003	7,063229821240944E-003	0,0000000E+000	1,1999834E+000	0,0000000E+000	0,000000000000000E+000	1,1968107E+000
2	1	0	0	0	0	1	1,442743462440828E+004	4,339190699798573E-004	8,852799785296640E-003	1,1999834E+000	1,3580985E+001	13	8,852799785296640E-003	0	1,2384174E+001	1,7679145E-004	1,202236638668506E-004	0,000000000000000E+000	1,039183242426395E+004	0,000000000000000E+000	1,301757225700198E-002	0,000000000000000E+000	8,852799785296640E-003	8,852799785296640E-003	0,0000000E+000	1,1999834E+000	0,0000000E+000	0,000000000000000E+000	1,1968107E+000
2	1	0	0	0	0	1	1,490743461859683E+004	4,002807567116494E-004	1,050309880992486E-002	1,1999834E+000	1,3579903E+001	13	1,050309880992486E-002	0	1,2383052E+001	1,6307321E-004	1,426343976374870E-004	0,000000000000000E+000	1,233338396019533E+004	0,000000000000000E+000	1,200842284673778E-002	0,000000000000000E+000	1,050309880992486E-002	1,050309880992486E-002	0,0000000E+000	1,1999834E+000	0,0000000E+000	0,000000000000000E+000	1,1968508E+000
2	1	0	0	0	0	1	1,538743461278538E+004	3,700152224275387E-004	1,202773110393776E-002	1,1999834E+000	1,3577698E+001	13	1,202773110393776E-002	0	1,2381047E+001	1,5071865E-004	1,633368344280500E-004	0,000000000000000E+000	1,413386596617183E+004	0,000000000000000E+000	1,110045680722154E-002	0,000000000000000E+000	1,202773110393776E-002	1,202773110393776E-002	0,0000000E+000	1,1999834E+000	0,0000000E+000	0,000000000000000E+000	1,1966505E+000
2	1	0	0	0	0	1	1,586743460697393E+004	3,426554855998709E-004	1,343817460373194E-002	1,1999834E+000	1,3578339E+001	13	1,343817460373194E-002	0	1,2381528E+001	1,3958076E-004	1,824888672936765E-004	0,000000000000000E+000	1,578798469107227E+004	0,000000000000000E+000	1,027966469245402E-002	0,000000000000000E+000	1,343817460373194E-002	1,343817460373194E-002	0,0000000E+000	1,1999834E+000	0,0000000E+000	0,000000000000000E+000	1,1968107E+000
3	1	0	1	0	0	1	1,604188520486181E+004	0,000000000000000E+000	1,375915649469404E-002	0,0000000E+000	1,4684354E+001	14	1,375915538429293E-002	0	1,3578070E+001	0,0000000E+000	1,868470216035675E-004	0,000000000000000E+000	1,616931965250759E+004	0,000000000000000E+000	0,000000000000000E+000	0,000000000000000E+000	1,375915538429293E-002	1,375915538429293E-002	0,0000000E+000	0,0000000E+000	0,0000000E+000	0,000000000000000E+000	1,1062841E+000
3	1	0	1	0	0	1	1,604193480486122E+004	0,000000000000000E+000	1,375915649469404E-002	0,0000000E+000	1,4683953E+001	14	1,375915538429293E-002	0	1,3577909E+001	0,0000000E+000	1,868470216035675E-004	0,000000000000000E+000	1,616931965250759E+004	0,000000000000000E+000	0,000000000000000E+000	0,000000000000000E+000	1,375915538429293E-002	1,375915538429293E-002	0,0000000E+000	0,0000000E+000	0,0000000E+000	0,000000000000000E+000	1,1060438E+000