Folder: InES-Datenverarbeitung/SAMPLE-MPT/20220309_SSB_Cell_03_Form01 (part 7)

File: 20220309_(Form02C)EIS_charging_10bis16V_step_01V+(1C+EIS)50cycle_13_GEIS_C08.mpt
EC-Lab ASCII FILE
Nb header lines : 72

Galvano Electrochemical Impedance Spectroscopy

Run on channel : 8 (SN 14384)
User :
CE vs. WE compliance from -10 V to 10 V
Electrode connection : standard
Potential control : Ewe-Ece
Ewe ctrl range : min = 0,00 V, max = 5,00 V
Safety Limits :
	Do not start on E overload
Acquisition started on : 03/09/2022 13:55:05.456
Technique started on : 03/09/2022 22:29:09.601
Loaded Setting File :  C:\DATA\x_Data_VMP3\Extern\InES\Binbin\001_Testing_Profiles\20220308_(Form02C)EIS_charging_10bis16V_step_01V+(1C+EIS)50cycle.mps
Saved on :
	File : 20220309_(Form02C)EIS_charging_10bis16V_step_01V+(1C+EIS)50cycle_13_GEIS_C08.mpr
	Directory : C:\DATA\x_Data_VMP3\Extern\InES\Binbin\20220309_SSB_Cell_03_Form01\
	Host : 134.169.45.143
Device : VMP3 (SN 0787)
Address : 134.169.45.150
EC-Lab for windows v11.42 (software)
Internet server v11.40 (firmware)
Command interpretor v11.40 (firmware)
Electrode material :
Initial state :
Electrolyte :
Comments :
Electrode surface area : 0,000 cm²
Characteristic mass : 0,001 g
Equivalent Weight : 0,000 g/eq.
Density : 0,000 g/cm3
Volume (V) : 0,001 cm³
Record Ece
Record Power
Cycle Definition : Charge/Discharge alternance
Mode                Single sine
Is                  0,000
unit Is             µA
vs.                 <None>
tIs (h:m:s)         0:00:0,0000
record              0
dE (mV)             0,000
dt (s)              0,000
fi                  1,000
unit fi             MHz
ff                  5,000
unit ff             mHz
Nd                  6
Points              per decade
spacing             Logarithmic
Ia/Va               Ia
Ia                  5,000
unit  Ia            µA
va pourcent         0,10
pw                  0,10
Na                  2
corr                0
E range min (V)     0,000
E range max (V)     5,000
I Range             10 µA
Bandwidth           5
nc cycles           0
goto Ns'            0
nr cycles           0
inc. cycle          0

Number of loops : 1
Loop 0 from point number 0 to 49

freq/Hz	Re(Z)/Ohm	-Im(Z)/Ohm	|Z|/Ohm	Phase(Z)/deg	time/s	<Ewe>/V	<I>/mA	Cs/µF	Cp/µF	cycle number	|Ewe|/V	|I|/A	Ns	I Range	(Q-Qo)/mA.h	<Ece>/V	|Ece|/V	Phase(Zce)/deg	|Zce|/Ohm	Re(Zce)/Ohm	-Im(Zce)/Ohm	Phase(Zwe-ce)/deg	|Zwe-ce|/Ohm	Re(Zwe-ce)/Ohm	-Im(Zwe-ce)/Ohm	P/W	Re(Y)/Ohm-1	Im(Y)/Ohm-1	|Y|/Ohm-1	Phase(Y)/deg	dq/mA.h
1,0000186E+006	-2,9358492E+001	4,6484180E+001	5,4979088E+001	-1,2227570E+002	3,084414466133702E+004	1,3576645E+001	1,7306085E-005	3,4237881E-003	2,4474971E-003	1,000000000000000E+000	2,8948166E-004	5,2653049E-006	0	14	8,099560892023622E-010	1,2089965E+001	2,6071604E-004	8,7465111E+001	4,9515850E+001	2,1899765E+000	-4,9467396E+001	1,7373380E+002	2,7331810E+001	-2,7168516E+001	-2,9832153E+000	0,0000000E+000	-9,7126700E-003	1,5378363E-002	1,8188734E-002	1,2227570E+002	8,099560892023622E-010
3,1029172E+005	1,4863337E+001	3,6136051E+001	3,9073429E+001	-6,7641853E+001	3,084529966139188E+004	1,3576698E+001	1,3327530E-005	1,4194145E-002	1,2140249E-002	1,000000000000000E+000	1,9040318E-004	4,8729580E-006	0	14	6,190950174590802E-009	1,2088839E+001	1,0871479E-004	-9,1322536E+000	2,2309814E+001	2,2027029E+001	3,5408773E+000	-4,7084282E+001	5,4177097E+001	3,6890366E+001	3,9676929E+001	0,0000000E+000	9,7353859E-003	2,3668876E-002	2,5592839E-002	6,7641853E+001	1,317465144666130E-009
9,6283031E+004	8,8397493E+000	-8,9830666E+000	1,2603042E+001	4,5460716E+001	3,084619266143430E+004	1,3576571E+001	1,5990321E-005	-1,8401183E-001	-9,3485497E-002	1,000000000000000E+000	6,0581235E-005	4,8068741E-006	0	14	1,243604211140337E-008	1,2088991E+001	1,7904524E-004	-3,8945457E+001	3,7247749E+001	2,8969238E+001	2,3413202E+001	-2,0889799E+001	4,0469105E+001	3,7808987E+001	1,4430136E+001	0,0000000E+000	5,5653084E-002	-5,6555375E-002	7,9345927E-002	-4,5460716E+001	2,418040458150495E-010
2,9876783E+004	3,7235398E+000	-1,5773958E+000	4,0438752E+000	2,2958878E+001	3,084734766148916E+004	1,3576521E+001	1,7307309E-005	-3,3771136E+000	-5,1384425E-001	1,000000000000000E+000	1,9158169E-005	4,7375770E-006	0	14	1,231588753648793E-008	1,2089220E+001	2,4596899E-004	-2,3857626E+001	5,1918732E+001	4,7482449E+001	2,0999327E+001	-2,0771246E+001	5,4765545E+001	5,1205990E+001	1,9421930E+001	0,0000000E+000	2,2769868E-001	-9,6459545E-002	2,4728756E-001	-2,2958878E+001	-2,351429504591984E-009
9,2692256E+003	-1,1366040E+000	-2,1264565E+000	2,4111586E+000	1,1812477E+002	3,084850266154401E+004	1,3576477E+001	1,8635512E-005	-8,0745840E+000	-6,2803183E+000	1,000000000000000E+000	1,1451792E-005	4,7494977E-006	0	14	1,856764702258968E-008	1,2089106E+001	3,2972801E-004	-1,9486383E+001	6,9423759E+001	6,5447220E+001	2,3158573E+001	-1,8109793E+001	6,7662437E+001	6,4310616E+001	2,1032116E+001	0,0000000E+000	-1,9550486E-001	-3,6576739E-001	4,1473839E-001	-1,1812477E+002	-2,284995048714538E-009
2,8779956E+003	1,1315053E+000	-8,6870715E-002	1,1348351E+000	4,3902407E+000	3,084971466160158E+004	1,3576260E+001	7,6053170E-006	-6,3658527E+002	-3,7302492E+000	1,000000000000000E+000	5,2155719E-006	4,5958850E-006	0	14	2,466756733811811E-008	1,2090098E+001	3,9866005E-004	-1,3649445E+001	8,6742828E+001	8,4293015E+001	2,0469643E+001	-1,3420169E+001	8,7822586E+001	8,5424522E+001	2,0382772E+001	0,0000000E+000	8,7859970E-001	-6,7454025E-002	8,8118529E-001	-4,3902407E+000	5,849893205714175E-009
8,9299957E+002	-3,3111200E-002	3,0685644E+000	3,0687430E+000	-9,0618225E+001	3,085128166167601E+004	1,3576278E+001	6,3536154E-006	5,8080936E+001	5,8074181E+001	1,000000000000000E+000	1,4701165E-005	4,7906146E-006	0	14	2,513720690120635E-008	1,2088419E+001	4,8760834E-004	-1,1001161E+001	1,0178409E+002	9,9913635E+001	1,9423344E+001	-1,2690643E+001	1,0238166E+002	9,9880524E+001	2,2491909E+001	0,0000000E+000	-3,5160501E-003	3,2584733E-001	3,2586631E-001	9,0618225E+001	2,384836502686640E-009
2,7686047E+002	3,7251062E+000	-4,4603688E-001	3,7517149E+000	6,8279762E+000	3,085261266173923E+004	1,3576260E+001	6,0987254E-006	-1,2888085E+003	-1,8216724E+001	1,000000000000000E+000	1,7874283E-005	4,7642966E-006	0	14	3,234245694457943E-008	1,2089220E+001	5,5322051E-004	-9,2374382E+000	1,1611798E+002	1,1461211E+002	1,8639975E+001	-8,7405863E+000	1,1972768E+002	1,1833722E+002	1,8193937E+001	0,0000000E+000	2,6465431E-001	-3,1689186E-002	2,6654476E-001	-6,8279762E+000	3,168658782252960E-009
8,5907173E+001	1,2620285E+001	7,6270776E+000	1,4745979E+001	-3,1146694E+001	3,085394366180245E+004	1,3576259E+001	6,2532254E-006	2,4290282E+002	6,4983276E+001	1,000000000000000E+000	7,0203096E-005	4,7608296E-006	0	14	3,126073696229999E-008	1,2090977E+001	5,3517544E-004	-5,5883141E+000	1,1241222E+002	1,1187796E+002	1,0946692E+001	-8,4853163E+000	1,2587612E+002	1,2449825E+002	1,8573771E+001	0,0000000E+000	5,8039267E-002	3,5076067E-002	6,7815095E-002	3,1146694E+001	-4,483912036650759E-010
2,6682035E+001	-2,3086672E+000	1,4266618E+001	1,4452209E+001	-9,9192093E+001	3,085527166186552E+004	1,3576249E+001	6,4640863E-006	4,1809995E+002	4,0743069E+002	1,000000000000000E+000	6,8813257E-005	4,7614353E-006	0	14	4,211951888735636E-008	1,2089927E+001	6,7801855E-004	-5,3384342E+000	1,4239793E+002	1,4178029E+002	1,3248490E+001	-1,1160062E+001	1,4215982E+002	1,3947162E+002	2,7515108E+001	0,0000000E+000	-1,1053326E-002	6,8305016E-002	6,9193579E-002	9,9192093E+001	1,121928454090775E-009
[...]
2,5682116E+000	3,0275044E+000	1,7655008E+000	3,5046792E+000	-3,0248764E+001	3,085848266201804E+004	1,3576359E+001	6,3034959E-006	3,5101156E+004	8,9075996E+003	1,000000000000000E+000	1,6681612E-005	4,7598114E-006	0	14	-3,867844494274348E-008	1,2090786E+001	8,1337366E-004	-1,0030119E+001	1,7088359E+002	1,6827187E+002	2,9762085E+001	-1,0428558E+001	1,7417653E+002	1,7129938E+002	3,1527586E+001	0,0000000E+000	2,4648373E-001	1,4373794E-001	2,8533283E-001	3,0248764E+001	-4,497444304058718E-008
7,9621863E-001	6,7920837E+000	-9,1195226E-002	6,7926960E+000	7,6924664E-001	3,086418966228911E+004	1,3576467E+001	7,3798665E-006	-2,1918745E+006	-3,9507138E+002	1,000000000000000E+000	3,2334458E-005	4,7601802E-006	0	14	3,055037502279055E-007	1,2089927E+001	9,3255989E-004	-1,2649316E+001	1,9590852E+002	1,9115356E+002	4,2900665E+001	-1,2203348E+001	2,0252193E+002	1,9794565E+002	4,2809471E+001	0,0000000E+000	1,4720368E-001	-1,9764586E-003	1,4721695E-001	-7,6924664E-001	1,762076128627036E-007
2,4724665E-001	6,1693616E+000	5,2761233E-001	6,1918817E+000	-4,8881207E+000	3,088244366315613E+004	1,3576537E+001	7,0854594E-006	1,2200420E+006	8,8584834E+003	1,000000000000000E+000	2,9474291E-005	4,7601511E-006	0	14	-1,823438667870694E-007	1,2091244E+001	1,1065726E-003	-1,0880495E+001	2,3246585E+002	2,2828682E+002	4,3880520E+001	-1,0725286E+001	2,3862477E+002	2,3445618E+002	4,4408131E+001	0,0000000E+000	1,6091441E-001	1,3761624E-002	1,6150180E-001	4,8881207E+000	-4,839823042199340E-007
7,6773763E-002	9,0808315E+000	-1,0093039E+001	1,3576853E+001	4,8021893E+001	3,094114066594408E+004	1,3576514E+001	6,8271265E-006	-2,0539288E+005	-1,1350919E+005	1,000000000000000E+000	6,4623542E-005	4,7598323E-006	0	14	-1,525281316571668E-006	1,2093172E+001	1,4612797E-003	-1,6000969E+001	3,0700235E+002	2,9510818E+002	8,4626305E+001	-1,3767536E+001	3,1318710E+002	3,0418903E+002	7,4533264E+001	0,0000000E+000	4,9263742E-002	-5,4754991E-002	7,3654771E-002	-4,8021893E+001	1,440138750516174E-007
2,3795672E-002	-1,1353282E+001	7,7122903E+000	1,3725029E+001	-1,4581171E+002	3,113025167492637E+004	1,3576227E+001	6,6439034E-006	8,6723900E+005	2,7382872E+005	1,000000000000000E+000	6,5329419E-005	4,7598746E-006	0	14	9,254001685140237E-006	1,2095882E+001	1,6273889E-003	-2,8120752E+001	3,4189743E+002	3,0153857E+002	1,6114699E+002	-3,0195192E+001	3,3573944E+002	2,9018530E+002	1,6885928E+002	0,0000000E+000	-6,0269121E-002	4,0940851E-002	7,2859593E-002	1,4581171E+002	5,093904959804327E-006
7,3873415E-003	1,4847296E+001	2,1434280E+001	2,6074327E+001	-5,5290070E+001	3,173954670386633E+004	1,3576182E+001	6,6584125E-006	1,0051319E+006	6,7922650E+005	1,000000000000000E+000	1,2411037E-004	4,7598687E-006	0	14	-7,068852780880573E-006	1,2110600E+001	2,0123420E-003	-6,4585872E+000	4,2277258E+002	4,2008942E+002	4,7555592E+001	-9,0131922E+000	4,4037433E+002	4,3493671E+002	6,8989868E+001	0,0000000E+000	2,1838417E-002	3,1527001E-002	3,8351901E-002	5,5290070E+001	-1,542496255931085E-005
5,0018891E-003	4,6464451E+001	8,4381742E+000	4,7224442E+001	-1,0293020E+001	3,216088872387900E+004	1,3575984E+001	6,6245320E-006	3,7708355E+006	1,2039291E+005	1,000000000000000E+000	2,2476944E-004	4,7595995E-006	0	14	-3,358735966399520E-005	1,2117836E+001	3,0713612E-003	-8,9127035E+000	6,4529822E+002	6,3750659E+002	9,9975685E+001	-9,0068216E+000	6,9250995E+002	6,8397107E+002	1,0841386E+002	0,0000000E+000	2,0834696E-002	3,7836840E-003	2,1175476E-002	1,0293020E+001	-2,651850688311463E-005

File: 20220309_(Form02C)EIS_charging_10bis16V_step_01V+(1C+EIS)50cycle_14_GCPL6_C08.mpt
EC-Lab ASCII FILE
Nb header lines : 76

Galvanostatic Cycling with Potential Limitation 6

Run on channel : 8 (SN 14384)
User :
CE vs. WE compliance from -10 V to 10 V
Electrode connection : standard
Potential control : Ewe-Ece
Ecell ctrl range : min = 0,00 V, max = 5,00 V
Safety Limits :
	Do not start on E overload
Acquisition started on : 03/09/2022 13:55:05.456
Technique started on : 03/09/2022 22:51:06.397
Loaded Setting File :  C:\DATA\x_Data_VMP3\Extern\InES\Binbin\001_Testing_Profiles\20220308_(Form02C)EIS_charging_10bis16V_step_01V+(1C+EIS)50cycle.mps
Saved on :
	File : 20220309_(Form02C)EIS_charging_10bis16V_step_01V+(1C+EIS)50cycle_14_GCPL6_C08.mpr
	Directory : C:\DATA\x_Data_VMP3\Extern\InES\Binbin\20220309_SSB_Cell_03_Form01\
	Host : 134.169.45.143
Device : VMP3 (SN 0787)
Address : 134.169.45.150
EC-Lab for windows v11.42 (software)
Internet server v11.40 (firmware)
Command interpretor v11.40 (firmware)
Electrode material :
Initial state :
Electrolyte :
Comments :
Electrode surface area : 0,000 cm²
Characteristic mass : 0,001 g
Equivalent Weight : 0,000 g/eq.
Density : 0,000 g/cm3
Volume (V) : 0,001 cm³
Record Ece
Record Power
Cycle Definition : Charge/Discharge alternance
Ns                  0                   1
Set I/C             I                   I
Is                  0,000               20,000
unit Is             mA                  µA
vs.                 <None>              <None>
N                   1,00                1,00
I sign              > 0                 > 0
t1 (h:m:s)          0:00:0,0000         20:00:0,0000
I Range             100 µA              100 µA
Bandwidth           5                   5
dE1 (mV)            0,00                0,00
dt1 (s)             0,0000              5,0000
EM (V)              0,000               1,600
tM (h:m:s)          0:00:0,0000         10:00:0,0000
Im                  0,000               10,000
unit Im             mA                  µA
dI/dt               0,000               0,000
dunit dI/dt         mA/s                mA/s
E range min (V)     0,000               0,000
E range max (V)     5,000               5,000
dq                  0,000               1,000
unit dq             mA.h                mA.h
dtq (s)             0,0000              120,0000
dQM                 0,000               0,000
unit dQM            mA.h                mA.h
dxM                 0,000               0,000
delta SoC (%)       pass                pass
tR (h:m:s)          0:00:10,0000        0:01:0,0000
dER/dt (mV/h)       0,0                 0,1
dER (mV)            0,00                0,00
dtR (s)             1,0000              120,0000
EL (V)              pass                pass
goto Ns'            0                   0
nc cycles           0                   0

Number of loops : 1
Loop 0 from point number 0 to 3608

mode	ox/red	error	control changes	Ns changes	counter inc.	Ns	time/s	dq/mA.h	(Q-Qo)/mA.h	control/V/mA	Ewe/V	I Range	Q charge/discharge/mA.h	half cycle	Ece/V	P/W	Energy charge/W.h	Energy discharge/W.h	Capacitance charge/µF	Capacitance discharge/µF	<I>/mA	Q discharge/mA.h	Q charge/mA.h	Capacity/mA.h	Efficiency/%	control/V	control/mA	cycle number	 Ecell/V
3	1	0	0	0	0	0	3,216094052388147E+004	0,000000000000000E+000	0,000000000000000E+000	0,0000000E+000	1,0514146E+001	14	0,000000000000000E+000	0	1,3589114E+001	0,0000000E+000	0,000000000000000E+000	0,000000000000000E+000	0,000000000000000E+000	0,000000000000000E+000	0,000000000000000E+000	0,000000000000000E+000	0,000000000000000E+000	0,000000000000000E+000	0,0000000E+000	0,0000000E+000	0,0000000E+000	0,000000000000000E+000	-3,0749683E+000
1	1	0	1	0	0	1	3,291094071679795E+004	2,785517358034849E-005	4,122620983954208E-003	2,0000001E-002	1,3577898E+001	13	4,122620983954206E-003	0	1,2078234E+001	2,7231459E-004	5,597118610350770E-005	0,000000000000000E+000	4,844202369354806E+003	0,000000000000000E+000	2,005572494049422E-002	0,000000000000000E+000	4,122620983954206E-003	4,122620983954206E-003	0,0000000E+000	0,0000000E+000	2,0000001E-002	0,000000000000000E+000	1,4996643E+000
1	1	0	1	0	0	1	3,370594071827875E+004	2,785554244069176E-005	8,551674800965107E-003	2,0000001E-002	1,3577698E+001	13	8,551674800965109E-003	0	1,2064260E+001	2,7231418E-004	1,161020115377880E-004	0,000000000000000E+000	1,004912933109711E+004	0,000000000000000E+000	2,005599051994087E-002	0,000000000000000E+000	8,551674800965109E-003	8,551674800965109E-003	0,0000000E+000	0,0000000E+000	2,0000001E-002	0,000000000000000E+000	1,5134382E+000
1	1	0	1	0	0	1	3,450094071975956E+004	2,785512436771145E-005	1,298072366559464E-002	2,0000001E-002	1,3577618E+001	13	1,298072366559464E-002	0	1,2053875E+001	2,7230848E-004	1,762324837553115E-004	0,000000000000000E+000	1,525413267577870E+004	0,000000000000000E+000	2,005568950739561E-002	0,000000000000000E+000	1,298072366559464E-002	1,298072366559464E-002	0,0000000E+000	0,0000000E+000	2,0000001E-002	0,000000000000000E+000	1,5237427E+000
1	1	0	1	0	0	1	3,529594072124036E+004	2,785514904693183E-005	1,740975706612122E-002	2,0000001E-002	1,3576134E+001	13	1,740975706612124E-002	0	1,2044215E+001	2,7227896E-004	2,363632441764008E-004	0,000000000000000E+000	2,046876994877313E+004	0,000000000000000E+000	2,005570727643425E-002	0,000000000000000E+000	1,740975706612124E-002	1,740975706612124E-002	0,0000000E+000	0,0000000E+000	2,0000001E-002	0,000000000000000E+000	1,5319185E+000
1	1	0	1	0	0	1	3,609094072272116E+004	2,785539973340929E-005	2,183878337624141E-002	2,0000001E-002	1,3575292E+001	13	2,183878337624142E-002	0	1,2036102E+001	2,7226453E-004	2,964927089653452E-004	0,000000000000000E+000	2,568306958939207E+004	0,000000000000000E+000	2,005588777069768E-002	0,000000000000000E+000	2,183878337624142E-002	2,183878337624142E-002	0,0000000E+000	0,0000000E+000	2,0000001E-002	0,000000000000000E+000	1,5391893E+000
1	1	0	1	0	0	1	3,688594072420197E+004	2,785479304898116E-005	2,626778380645243E-002	2,0000001E-002	1,3575212E+001	13	2,626778380645244E-002	0	1,2030356E+001	2,7225699E-004	3,566213332485503E-004	0,000000000000000E+000	3,089251645652161E+004	0,000000000000000E+000	2,005545095791025E-002	0,000000000000000E+000	2,626778380645244E-002	2,626778380645244E-002	0,0000000E+000	0,0000000E+000	2,0000001E-002	0,000000000000000E+000	1,5448551E+000
1	1	0	1	0	0	1	3,768094072568277E+004	2,785534536207302E-005	3,069678318768947E-002	2,0000001E-002	1,3577016E+001	13	3,069678316423558E-002	0	1,2026538E+001	2,7229858E-004	4,167519073741025E-004	0,000000000000000E+000	3,608002248425339E+004	0,000000000000000E+000	2,005584862333564E-002	0,000000000000000E+000	3,069678316423558E-002	3,069678316423558E-002	0,0000000E+000	0,0000000E+000	2,0000001E-002	0,000000000000000E+000	1,5504780E+000
1	1	0	1	0	0	1	3,847594072716357E+004	2,785626674164087E-005	3,512589919497393E-002	2,0000001E-002	1,3575893E+001	13	3,512589910546488E-002	0	1,2020220E+001	2,7228508E-004	4,768830780539169E-004	0,000000000000000E+000	4,130100038451725E+004	0,000000000000000E+000	2,005651201662326E-002	0,000000000000000E+000	3,512589910546488E-002	3,512589910546488E-002	0,0000000E+000	0,0000000E+000	2,0000001E-002	0,000000000000000E+000	1,5556736E+000
[...]
1	1	0	1	0	0	1	4,483594073901000E+004	2,785590197239071E-005	7,055919750575473E-002	2,0000001E-002	1,3576695E+001	13	7,055919678661875E-002	0	1,1992043E+001	2,7229759E-004	9,579277074496385E-004	0,000000000000000E+000	8,294171273926699E+004	0,000000000000000E+000	2,005624938276364E-002	0,000000000000000E+000	7,055919678661875E-002	7,055919678661875E-002	0,0000000E+000	0,0000000E+000	2,0000001E-002	0,000000000000000E+000	1,5846529E+000
1	1	0	1	0	0	1	4,563094074049080E+004	2,785574821072320E-005	7,498827278725741E-002	2,0000001E-002	1,3575613E+001	13	7,498827196529011E-002	0	1,1988206E+001	2,7227437E-004	1,018057355375100E-003	0,000000000000000E+000	8,817921735609106E+004	0,000000000000000E+000	2,005613867436324E-002	0,000000000000000E+000	7,498827196529011E-002	7,498827196529011E-002	0,0000000E+000	0,0000000E+000	2,0000001E-002	0,000000000000000E+000	1,5874071E+000
1	1	0	1	0	0	1	4,642594074197160E+004	2,785565670507236E-005	7,941734073827519E-002	2,0000001E-002	1,3574650E+001	13	7,941733981384036E-002	0	1,1984884E+001	2,7225417E-004	1,078184237831953E-003	0,000000000000000E+000	9,341677942543257E+004	0,000000000000000E+000	2,005607279029475E-002	0,000000000000000E+000	7,941733981384036E-002	7,941733981384036E-002	0,0000000E+000	0,0000000E+000	2,0000001E-002	0,000000000000000E+000	1,5897655E+000
1	1	0	1	0	0	1	4,722094074345240E+004	2,785655390471220E-005	8,384647778135000E-002	2,0000001E-002	1,3576534E+001	13	8,384647675406195E-002	0	1,1984369E+001	2,7230073E-004	1,138310153867808E-003	0,000000000000000E+000	9,856598017839799E+004	0,000000000000000E+000	2,005671877403423E-002	0,000000000000000E+000	8,384647675406195E-002	8,384647675406195E-002	0,0000000E+000	0,0000000E+000	2,0000001E-002	0,000000000000000E+000	1,5921650E+000
1	1	0	1	0	0	1	4,801594074493321E+004	2,785660193912271E-005	8,827557087765106E-002	2,0000001E-002	1,3576534E+001	13	8,827556974775905E-002	0	1,1982097E+001	2,7230120E-004	1,198439295365899E-003	0,000000000000000E+000	1,037726138871171E+005	0,000000000000000E+000	2,005675335880974E-002	0,000000000000000E+000	8,827556974775905E-002	8,827556974775905E-002	0,0000000E+000	0,0000000E+000	2,0000001E-002	0,000000000000000E+000	1,5944376E+000
1	1	0	1	0	0	1	4,881094074641401E+004	2,785614766304692E-005	9,270464664310331E-002	2,0000001E-002	1,3574731E+001	13	9,270464541045048E-002	0	1,1978012E+001	2,7226060E-004	1,258566804461149E-003	0,000000000000000E+000	1,090434413949123E+005	0,000000000000000E+000	2,005642628003577E-002	0,000000000000000E+000	9,270464541045048E-002	9,270464541045048E-002	0,0000000E+000	0,0000000E+000	2,0000001E-002	0,000000000000000E+000	1,5967188E+000
1	1	0	1	0	0	1	4,960594074789481E+004	2,785694211442024E-005	9,713374620019975E-002	2,0000001E-002	1,3573327E+001	13	9,713374486500787E-002	0	1,1974919E+001	2,7224020E-004	1,318693997438871E-003	0,000000000000000E+000	1,143055795402850E+005	0,000000000000000E+000	2,005699828502350E-002	0,000000000000000E+000	9,713374486500787E-002	9,713374486500787E-002	0,0000000E+000	0,0000000E+000	2,0000001E-002	0,000000000000000E+000	1,5984077E+000
3	1	0	1	0	0	1	5,017964434896338E+004	0,000000000000000E+000	9,999468789757499E-002	0,0000000E+000	1,5169991E+001	14	9,999468758809173E-002	0	1,3574702E+001	0,0000000E+000	1,357538441959678E-003	5,129689757687558E-009	1,820373927406304E+005	1,698152137741815E+004	0,000000000000000E+000	0,000000000000000E+000	9,999468758809173E-002	9,999468758809173E-002	0,0000000E+000	0,0000000E+000	0,0000000E+000	0,000000000000000E+000	1,5952892E+000