Folder: InES-Datenverarbeitung/SAMPLE-MPT/20220309_SSB_Cell_03_Form01 (part 4)

File: 20220309_(Form02C)EIS_charging_10bis16V_step_01V+(1C+EIS)50cycle_07_GEIS_C08.mpt
EC-Lab ASCII FILE
Nb header lines : 72

Galvano Electrochemical Impedance Spectroscopy

Run on channel : 8 (SN 14384)
User :
CE vs. WE compliance from -10 V to 10 V
Electrode connection : standard
Potential control : Ewe-Ece
Ewe ctrl range : min = 0,00 V, max = 5,00 V
Safety Limits :
	Do not start on E overload
Acquisition started on : 03/09/2022 13:55:05.456
Technique started on : 03/09/2022 18:22:28.314
Loaded Setting File :  C:\DATA\x_Data_VMP3\Extern\InES\Binbin\001_Testing_Profiles\20220308_(Form02C)EIS_charging_10bis16V_step_01V+(1C+EIS)50cycle.mps
Saved on :
	File : 20220309_(Form02C)EIS_charging_10bis16V_step_01V+(1C+EIS)50cycle_07_GEIS_C08.mpr
	Directory : C:\DATA\x_Data_VMP3\Extern\InES\Binbin\20220309_SSB_Cell_03_Form01\
	Host : 134.169.45.143
Device : VMP3 (SN 0787)
Address : 134.169.45.150
EC-Lab for windows v11.42 (software)
Internet server v11.40 (firmware)
Command interpretor v11.40 (firmware)
Electrode material :
Initial state :
Electrolyte :
Comments :
Electrode surface area : 0,000 cm²
Characteristic mass : 0,001 g
Equivalent Weight : 0,000 g/eq.
Density : 0,000 g/cm3
Volume (V) : 0,001 cm³
Record Ece
Record Power
Cycle Definition : Charge/Discharge alternance
Mode                Single sine
Is                  0,000
unit Is             µA
vs.                 <None>
tIs (h:m:s)         0:00:0,0000
record              0
dE (mV)             0,000
dt (s)              0,000
fi                  1,000
unit fi             MHz
ff                  5,000
unit ff             mHz
Nd                  6
Points              per decade
spacing             Logarithmic
Ia/Va               Ia
Ia                  5,000
unit  Ia            µA
va pourcent         0,10
pw                  0,10
Na                  2
corr                0
E range min (V)     0,000
E range max (V)     5,000
I Range             10 µA
Bandwidth           5
nc cycles           0
goto Ns'            0
nr cycles           0
inc. cycle          0

Number of loops : 1
Loop 0 from point number 0 to 49

freq/Hz	Re(Z)/Ohm	-Im(Z)/Ohm	|Z|/Ohm	Phase(Z)/deg	time/s	<Ewe>/V	<I>/mA	Cs/µF	Cp/µF	cycle number	|Ewe|/V	|I|/A	Ns	I Range	(Q-Qo)/mA.h	<Ece>/V	|Ece|/V	Phase(Zce)/deg	|Zce|/Ohm	Re(Zce)/Ohm	-Im(Zce)/Ohm	Phase(Zwe-ce)/deg	|Zwe-ce|/Ohm	Re(Zwe-ce)/Ohm	-Im(Zwe-ce)/Ohm	P/W	Re(Y)/Ohm-1	Im(Y)/Ohm-1	|Y|/Ohm-1	Phase(Y)/deg	dq/mA.h
1,0000186E+006	-2,8203691E+001	4,6628044E+001	5,4494244E+001	-1,2116830E+002	1,604285800490505E+004	1,3578366E+001	1,1518180E-005	3,4132246E-003	2,4989524E-003	1,000000000000000E+000	2,7675342E-004	5,0785807E-006	0	14	1,867879957638744E-009	1,2473923E+001	2,1363579E-004	4,3303307E+001	4,2066044E+001	3,0612856E+001	-2,8851433E+001	-8,2282043E+001	1,7939119E+001	2,4091644E+000	1,7776611E+001	0,0000000E+000	-9,4974004E-003	1,5701672E-002	1,8350562E-002	1,2116830E+002	1,867879957638744E-009
3,1029172E+005	1,0297278E+001	3,6905792E+001	3,8315422E+001	-7,4410088E+001	1,604414400496613E+004	1,3578450E+001	1,6216814E-005	1,3898099E-002	1,2894285E-002	1,000000000000000E+000	1,8582898E-004	4,8499787E-006	0	14	7,458220415154907E-009	1,2472680E+001	1,6663938E-004	-2,0631491E+001	3,4358788E+001	3,2155220E+001	1,2106527E+001	-4,9102207E+001	6,4841515E+001	4,2452499E+001	4,9012321E+001	0,0000000E+000	7,0141531E-003	2,5138961E-002	2,6099151E-002	7,4410088E+001	2,494657463911448E-011
9,6283031E+004	6,3095875E+000	-5,3622837E+000	8,2803974E+000	4,0359974E+001	1,604503700500855E+004	1,3578258E+001	1,4892380E-005	-3,0826244E-001	-1,2927596E-001	1,000000000000000E+000	3,9872804E-005	4,8153252E-006	0	14	2,660642882568077E-009	1,2472479E+001	3,2569302E-004	-5,2542614E+001	6,7636765E+001	4,1134731E+001	5,3690460E+001	-4,5528751E+001	6,7724266E+001	4,7444321E+001	4,8328178E+001	0,0000000E+000	9,2023470E-002	-7,8207329E-002	1,2076715E-001	-4,0359974E+001	-1,797524826373199E-009
2,9876783E+004	1,5566438E+000	-3,6399260E+000	3,9588132E+000	6,6845634E+001	1,604619200506341E+004	1,3578310E+001	1,8319042E-005	-1,4635035E+000	-1,2372254E+000	1,000000000000000E+000	1,8752509E-005	4,7369017E-006	0	14	1,430039418363549E-008	1,2474885E+001	6,8740931E-004	-5,3200615E+001	1,4511792E+002	8,6927818E+001	1,1620140E+002	-5,1829147E+001	1,4317676E+002	8,8484459E+001	1,1256148E+002	0,0000000E+000	9,9325158E-002	-2,3225366E-001	2,5260097E-001	-6,6845634E+001	4,646135031129638E-009
9,2692256E+003	1,0277617E+000	2,4057145E+000	2,6160574E+000	-6,6867012E+001	1,604734700511827E+004	1,3578292E+001	1,4432949E-005	7,1372771E+000	6,0356803E+000	1,000000000000000E+000	1,2437837E-005	4,7544204E-006	0	14	1,651909910024566E-008	1,2473361E+001	1,4319133E-003	-5,3829185E+001	3,0117517E+002	1,7775194E+002	2,4312698E+002	-5,3940517E+001	3,0372437E+002	1,7877969E+002	2,4553270E+002	0,0000000E+000	1,5017508E-001	3,5151958E-001	3,8225460E-001	6,6867012E+001	3,189596977133786E-009
2,8779956E+003	1,2220209E+000	1,9372651E-001	1,2372813E+000	-9,0081148E+000	1,604855900517583E+004	1,3578179E+001	7,4769368E-006	2,8545715E+002	6,9981318E+000	1,000000000000000E+000	5,6874756E-006	4,5967522E-006	0	14	1,380010026538988E-008	1,2472359E+001	2,8513141E-003	-4,9731213E+001	6,2028888E+002	4,0093875E+002	4,7329315E+002	-4,9656761E+001	6,2122711E+002	4,0216077E+002	4,7348688E+002	0,0000000E+000	7,9825515E-001	1,2654708E-001	8,0822361E-001	9,0081148E+000	-3,328686664157803E-009
8,9299957E+002	-4,5571834E-001	2,6549854E+000	2,6938126E+000	-9,9739693E+001	1,605012500525021E+004	1,3578271E+001	5,4997490E-006	6,7128471E+001	6,5207306E+001	1,000000000000000E+000	1,2906386E-005	4,7911221E-006	0	14	1,809976867815522E-008	1,2479615E+001	5,4785144E-003	-4,1187458E+001	1,1434720E+003	8,6053027E+002	7,5300464E+002	-4,1302467E+001	1,1448798E+003	8,6007458E+002	7,5565961E+002	0,0000000E+000	-6,2800288E-002	3,6587048E-001	3,7122107E-001	9,9739693E+001	2,712435829203567E-009
2,7686047E+002	3,2736483E+000	2,7021214E-001	3,2847812E+000	-4,7185884E+000	1,605145600531343E+004	1,3578059E+001	6,2685344E-006	2,1274253E+003	1,4396308E+001	1,000000000000000E+000	1,5652578E-005	4,7651815E-006	0	14	2,052788237371791E-008	1,2467789E+001	8,7696929E-003	-3,2372841E+001	1,8403691E+003	1,5543423E+003	9,8538245E+002	-3,2325451E+001	1,8432793E+003	1,5576160E+003	9,8565265E+002	0,0000000E+000	3,0340245E-001	2,5043324E-002	3,0443427E-001	4,7185884E+000	8,947108354833413E-010
8,5907173E+001	1,4457803E+001	1,2104892E+001	1,8856205E+001	-3,9937977E+001	1,605278600537661E+004	1,3578098E+001	7,1362138E-006	1,5304875E+002	6,3072933E+001	1,000000000000000E+000	8,9761226E-005	4,7603016E-006	0	14	1,803669726707666E-008	1,2484185E+001	1,2540065E-002	-2,4249704E+001	2,6343005E+003	2,4018608E+003	1,0819445E+003	-2,4359842E+001	2,6524592E+003	2,4163186E+003	1,0940493E+003	0,0000000E+000	4,0662467E-002	3,4044921E-002	5,3032942E-002	3,9937977E+001	-2,643508645456274E-009
2,6682035E+001	5,9015193E+000	1,6641074E+000	6,1316543E+000	-1,5747363E+001	1,605411400543968E+004	1,3578083E+001	4,9832461E-006	3,5844275E+003	2,6401416E+002	1,000000000000000E+000	2,9204986E-005	4,7629865E-006	0	14	2,706271629605478E-008	1,2488636E+001	1,6358908E-002	-1,6220417E+001	3,4345906E+003	3,2978740E+003	9,5939545E+002	-1,6219574E+001	3,4407222E+003	3,3037756E+003	9,6105957E+002	0,0000000E+000	1,5696706E-001	4,4261489E-002	1,6308813E-001	1,5747363E+001	-1,691736694839266E-009
[...]
2,5682116E+000	4,4274683E+000	-1,4730982E+000	4,6661005E+000	1,8403210E+001	1,605732400559215E+004	1,3578275E+001	6,4411965E-006	-4,2068559E+004	-4,1928838E+003	1,000000000000000E+000	2,2214208E-005	4,7607650E-006	0	14	-9,245385208367276E-009	1,2465464E+001	2,0493714E-002	-6,9152727E+000	4,3047104E+003	4,2733950E+003	5,1829346E+002	-6,8887396E+000	4,3089287E+003	4,2778223E+003	5,1682037E+002	0,0000000E+000	2,0335145E-001	-6,7658678E-002	2,1431172E-001	-1,8403210E+001	1,127407660348783E-008
7,9621863E-001	8,0287514E+000	4,1309047E+000	9,0291319E+000	-2,7226454E+001	1,606303100586322E+004	1,3578151E+001	7,0655378E-006	4,8388555E+004	1,0128403E+004	1,000000000000000E+000	4,2994703E-005	4,7617759E-006	0	14	2,792871608347522E-007	1,2477130E+001	2,1999732E-002	-6,7545652E+000	4,6200688E+003	4,5880015E+003	5,4339642E+002	-6,7936563E+000	4,6285288E+003	4,5960303E+003	5,4752734E+002	0,0000000E+000	9,8481812E-002	5,0670266E-002	1,1075262E-001	2,7226454E+001	6,790385488999424E-008
2,4724665E-001	1,4285184E+001	7,9855242E+000	1,6365667E+001	-2,9205517E+001	1,608128400673019E+004	1,3577931E+001	6,9935604E-006	8,0609508E+004	1,9192242E+004	1,000000000000000E+000	7,7918266E-005	4,7610811E-006	0	14	-6,775700637695144E-007	1,2501625E+001	2,4401596E-002	-7,4513392E+000	5,1252217E+003	5,0819409E+003	6,6465985E+002	-7,5189466E+000	5,1404253E+003	5,0962261E+003	6,7264539E+002	0,0000000E+000	5,3335745E-002	2,9815082E-002	6,1103527E-002	2,9205517E+001	-5,301105563402315E-007
7,6773763E-002	2,1935146E+001	7,6229709E-001	2,1948389E+001	-1,9903598E+000	1,613998100951815E+004	1,3578290E+001	6,7937449E-006	2,7194623E+006	3,2803960E+003	1,000000000000000E+000	1,0449391E-004	4,7608919E-006	0	14	4,717672253159119E-007	1,2462977E+001	2,7955633E-002	-1,0374847E+001	5,8719316E+003	5,7759292E+003	1,0574606E+003	-1,0343735E+001	5,8936460E+003	5,7978643E+003	1,0582229E+003	0,0000000E+000	4,5533940E-002	1,5824097E-003	4,5561429E-002	1,9903598E+000	1,379608732249469E-006
2,3795672E-002	2,0145840E+001	6,8174072E+001	7,1088387E+001	-7,3537277E+001	1,632909301850048E+004	1,3578334E+001	6,7179712E-006	9,8107656E+004	9,0228570E+004	1,000000000000000E+000	3,3845339E-004	4,7610224E-006	0	14	8,040537028501452E-006	1,2493206E+001	3,2507543E-002	-1,1336457E+001	6,8278491E+003	6,6946362E+003	1,3421509E+003	-1,1861583E+001	6,8612910E+003	6,7147822E+003	1,4103250E+003	0,0000000E+000	3,9864662E-003	1,3490309E-002	1,4066995E-002	7,3537277E+001	1,568920577231363E-006
7,3873415E-003	5,9569269E-001	3,6480865E+001	3,6485729E+001	-8,9064507E+001	1,693838704744040E+004	1,3577824E+001	6,8348063E-006	5,9056375E+005	5,9040638E+005	1,000000000000000E+000	1,7371157E-004	4,7610824E-006	0	14	-2,382248969341516E-005	1,2547729E+001	4,0075369E-002	-1,0929689E+001	8,4172813E+003	8,2645967E+003	1,5959523E+003	-1,1172521E+001	8,4248584E+003	8,2651924E+003	1,6324331E+003	0,0000000E+000	4,4748222E-004	2,7404323E-002	2,7407976E-002	8,9064507E+001	-1,744228520913535E-005
5,0018891E-003	2,0760176E+001	1,4418211E+001	2,5275871E+001	-3,4780479E+001	1,735972906745307E+004	1,3577901E+001	7,3974811E-006	2,2068595E+006	7,1810038E+005	1,000000000000000E+000	1,2033475E-004	4,7608546E-006	0	14	-4,078642520393821E-005	1,2538949E+001	4,3302391E-002	-1,1572311E+001	9,0955078E+003	8,9106172E+003	1,8245999E+003	-1,1634896E+001	9,1187432E+003	8,9313770E+003	1,8390181E+003	0,0000000E+000	3,2495167E-002	2,2568313E-002	3,9563425E-002	3,4780479E+001	-1,696393551052305E-005

File: 20220309_(Form02C)EIS_charging_10bis16V_step_01V+(1C+EIS)50cycle_08_GCPL6_C08.mpt
EC-Lab ASCII FILE
Nb header lines : 76

Galvanostatic Cycling with Potential Limitation 6

Run on channel : 8 (SN 14384)
User :
CE vs. WE compliance from -10 V to 10 V
Electrode connection : standard
Potential control : Ewe-Ece
Ecell ctrl range : min = 0,00 V, max = 5,00 V
Safety Limits :
	Do not start on E overload
Acquisition started on : 03/09/2022 13:55:05.456
Technique started on : 03/09/2022 18:44:25.237
Loaded Setting File :  C:\DATA\x_Data_VMP3\Extern\InES\Binbin\001_Testing_Profiles\20220308_(Form02C)EIS_charging_10bis16V_step_01V+(1C+EIS)50cycle.mps
Saved on :
	File : 20220309_(Form02C)EIS_charging_10bis16V_step_01V+(1C+EIS)50cycle_08_GCPL6_C08.mpr
	Directory : C:\DATA\x_Data_VMP3\Extern\InES\Binbin\20220309_SSB_Cell_03_Form01\
	Host : 134.169.45.143
Device : VMP3 (SN 0787)
Address : 134.169.45.150
EC-Lab for windows v11.42 (software)
Internet server v11.40 (firmware)
Command interpretor v11.40 (firmware)
Electrode material :
Initial state :
Electrolyte :
Comments :
Electrode surface area : 0,000 cm²
Characteristic mass : 0,001 g
Equivalent Weight : 0,000 g/eq.
Density : 0,000 g/cm3
Volume (V) : 0,001 cm³
Record Ece
Record Power
Cycle Definition : Charge/Discharge alternance
Ns                  0                   1
Set I/C             I                   I
Is                  0,000               20,000
unit Is             mA                  µA
vs.                 <None>              <None>
N                   1,00                1,00
I sign              > 0                 > 0
t1 (h:m:s)          0:00:0,0000         20:00:0,0000
I Range             100 µA              100 µA
Bandwidth           5                   5
dE1 (mV)            0,00                0,00
dt1 (s)             0,0000              5,0000
EM (V)              0,000               1,300
tM (h:m:s)          0:00:0,0000         10:00:0,0000
Im                  0,000               10,000
unit Im             mA                  µA
dI/dt               0,000               0,000
dunit dI/dt         mA/s                mA/s
E range min (V)     0,000               0,000
E range max (V)     5,000               5,000
dq                  0,000               1,000
unit dq             mA.h                mA.h
dtq (s)             0,0000              120,0000
dQM                 0,000               0,000
unit dQM            mA.h                mA.h
dxM                 0,000               0,000
delta SoC (%)       pass                pass
tR (h:m:s)          0:00:10,0000        0:01:0,0000
dER/dt (mV/h)       0,0                 0,1
dER (mV)            0,00                0,00
dtR (s)             1,0000              120,0000
EL (V)              pass                pass
goto Ns'            0                   0
nc cycles           0                   0

Number of loops : 1
Loop 0 from point number 0 to 163

mode	ox/red	error	control changes	Ns changes	counter inc.	Ns	time/s	dq/mA.h	(Q-Qo)/mA.h	control/V/mA	Ewe/V	I Range	Q charge/discharge/mA.h	half cycle	Ece/V	P/W	Energy charge/W.h	Energy discharge/W.h	Capacitance charge/µF	Capacitance discharge/µF	<I>/mA	Q discharge/mA.h	Q charge/mA.h	Capacity/mA.h	Efficiency/%	control/V	control/mA	cycle number	 Ecell/V
3	1	0	1	0	0	0	1,735978086745553E+004	0,000000000000000E+000	0,000000000000000E+000	0,0000000E+000	1,0514146E+001	14	0,000000000000000E+000	0	1,3591439E+001	0,0000000E+000	0,000000000000000E+000	0,000000000000000E+000	0,000000000000000E+000	0,000000000000000E+000	0,000000000000000E+000	0,000000000000000E+000	0,000000000000000E+000	0,000000000000000E+000	0,0000000E+000	0,0000000E+000	0,0000000E+000	0,000000000000000E+000	-3,0772934E+000
3	1	0	1	0	0	0	1,736778086735867E+004	0,000000000000000E+000	0,000000000000000E+000	0,0000000E+000	1,4633914E+001	14	0,000000000000000E+000	0	1,3578030E+001	0,0000000E+000	0,000000000000000E+000	0,000000000000000E+000	0,000000000000000E+000	0,000000000000000E+000	0,000000000000000E+000	0,000000000000000E+000	0,000000000000000E+000	0,000000000000000E+000	0,0000000E+000	0,0000000E+000	0,0000000E+000	0,000000000000000E+000	1,0558844E+000
1	1	0	0	0	0	1	1,739478106703177E+004	2,785653116885159E-005	1,392881467363073E-004	2,0000001E-002	1,3578740E+001	13	1,392881467363073E-004	0	1,2345046E+001	2,7234474E-004	1,891245724657938E-006	0,000000000000000E+000	1,636227455477313E+002	0,000000000000000E+000	2,005670268440352E-002	0,000000000000000E+000	1,392881467363073E-004	1,392881467363073E-004	0,0000000E+000	0,0000000E+000	2,0000001E-002	0,000000000000000E+000	1,2336941E+000
1	1	0	0	0	0	1	1,743478106654748E+004	2,785640794235385E-005	3,621400627492823E-004	2,0000001E-002	1,3578780E+001	13	3,621400627492824E-004	0	1,2325361E+001	2,7234436E-004	4,917112982677771E-006	0,000000000000000E+000	4,254028665221337E+002	0,000000000000000E+000	2,005661396132408E-002	0,000000000000000E+000	3,621400627492824E-004	3,621400627492824E-004	0,0000000E+000	0,0000000E+000	2,0000001E-002	0,000000000000000E+000	1,2534189E+000
1	1	0	0	0	0	1	1,747478106606319E+004	2,785673214815971E-005	5,849943479984585E-004	2,0000001E-002	1,3576856E+001	13	5,849943479984586E-004	0	1,2313935E+001	2,7230891E-004	7,942909652149736E-006	0,000000000000000E+000	6,876197173669850E+002	0,000000000000000E+000	2,005684738950712E-002	0,000000000000000E+000	5,849943479984586E-004	5,849943479984586E-004	0,0000000E+000	0,0000000E+000	2,0000001E-002	0,000000000000000E+000	1,2629204E+000
1	1	0	0	0	0	1	1,751478106557891E+004	2,785685179548131E-005	8,078491364923409E-004	2,0000001E-002	1,3576615E+001	13	8,078491364923410E-004	0	1,2307882E+001	2,7230527E-004	1,096868525934707E-005	0,000000000000000E+000	9,496443664387172E+002	0,000000000000000E+000	2,005693353557972E-002	0,000000000000000E+000	8,078491364923410E-004	8,078491364923410E-004	0,0000000E+000	0,0000000E+000	2,0000001E-002	0,000000000000000E+000	1,2687330E+000
1	1	0	0	0	0	1	1,755478106509462E+004	2,785659149961753E-005	1,030702300858477E-003	2,0000001E-002	1,3578620E+001	13	1,030702300858477E-003	0	1,2304955E+001	2,7234294E-004	1,399451697322780E-005	0,000000000000000E+000	1,210820569841144E+003	0,000000000000000E+000	2,005674612255553E-002	0,000000000000000E+000	1,030702300858477E-003	1,030702300858477E-003	0,0000000E+000	0,0000000E+000	2,0000001E-002	0,000000000000000E+000	1,2736645E+000
1	1	0	0	0	0	1	1,759478106461033E+004	2,785619594963888E-005	1,253553898980324E-003	2,0000001E-002	1,3577256E+001	13	1,253553898980323E-003	0	1,2300024E+001	2,7231174E-004	1,702024591685453E-005	0,000000000000000E+000	1,473271778807178E+003	0,000000000000000E+000	2,005646132656745E-002	0,000000000000000E+000	1,253553898980323E-003	1,253553898980323E-003	0,0000000E+000	0,0000000E+000	2,0000001E-002	0,000000000000000E+000	1,2772322E+000
1	1	0	0	0	0	1	1,763478106412604E+004	2,785673000808391E-005	1,476403232458979E-003	2,0000001E-002	1,3576334E+001	13	1,476403232458979E-003	0	1,2295815E+001	2,7229844E-004	2,004596642720594E-005	0,000000000000000E+000	1,735703810185021E+003	0,000000000000000E+000	2,005684584865253E-002	0,000000000000000E+000	1,476403232458979E-003	1,476403232458979E-003	0,0000000E+000	0,0000000E+000	2,0000001E-002	0,000000000000000E+000	1,2805195E+000
[...]
1	1	0	0	0	0	1	1,787478106122032E+004	2,785693598590377E-005	2,813504982012428E-003	2,0000001E-002	1,3579542E+001	13	2,813504982012428E-003	0	1,2283948E+001	2,7236479E-004	3,820076637809221E-005	0,000000000000000E+000	3,304178942814375E+003	0,000000000000000E+000	2,005699415268462E-002	0,000000000000000E+000	2,813504982012428E-003	2,813504982012428E-003	0,0000000E+000	0,0000000E+000	2,0000001E-002	0,000000000000000E+000	1,2955942E+000
1	1	0	0	0	0	1	1,791478106073603E+004	2,785719652794715E-005	3,036361438835040E-003	2,0000001E-002	1,3579301E+001	13	3,036361438835040E-003	0	1,2282144E+001	2,7236249E-004	4,122674335001616E-005	0,000000000000000E+000	3,566182158921214E+003	0,000000000000000E+000	2,005718174295813E-002	0,000000000000000E+000	3,036361438835040E-003	3,036361438835040E-003	0,0000000E+000	0,0000000E+000	2,0000001E-002	0,000000000000000E+000	1,2971573E+000
1	1	0	0	0	0	1	1,795478106025174E+004	2,785734188908504E-005	3,259222606465117E-003	2,0000001E-002	1,3576936E+001	13	3,259222606465118E-003	0	1,2278094E+001	2,7231651E-004	4,425276863891786E-005	0,000000000000000E+000	3,830886773584854E+003	0,000000000000000E+000	2,005728640297868E-002	0,000000000000000E+000	3,259222606465118E-003	3,259222606465118E-003	0,0000000E+000	0,0000000E+000	2,0000001E-002	0,000000000000000E+000	1,2988415E+000
2	1	0	1	0	0	1	1,832759925573797E+004	5,869919766884090E-004	5,159689615397508E-003	1,3000113E+000	1,3577978E+001	13	5,159689615397508E-003	0	1,2281383E+001	2,3910493E-004	7,005731810408140E-005	0,000000000000000E+000	6,062630359492709E+003	0,000000000000000E+000	1,760975951385704E-002	0,000000000000000E+000	5,159689615397508E-003	5,159689615397508E-003	0,0000000E+000	1,3000113E+000	0,0000000E+000	0,000000000000000E+000	1,2965956E+000
2	1	0	1	0	0	1	1,928759924411506E+004	4,617697423047179E-004	9,244792574457048E-003	1,3000113E+000	1,3578419E+001	13	9,244792574457050E-003	0	1,2281463E+001	1,8810309E-004	1,255253197398168E-004	0,000000000000000E+000	1,086106054041316E+004	0,000000000000000E+000	1,385309243686361E-002	0,000000000000000E+000	9,244792574457050E-003	9,244792574457050E-003	0,0000000E+000	1,3000113E+000	0,0000000E+000	0,000000000000000E+000	1,2969561E+000
2	1	0	1	0	0	1	2,024759923249215E+004	3,837215670389641E-004	1,256810876380419E-002	1,3000113E+000	1,3577336E+001	13	1,256810876380420E-002	0	1,2280781E+001	1,5629751E-004	1,706470683270799E-004	0,000000000000000E+000	1,477060996940620E+004	0,000000000000000E+000	1,151164715054266E-002	0,000000000000000E+000	1,256810876380420E-002	1,256810876380420E-002	0,0000000E+000	1,3000113E+000	0,0000000E+000	0,000000000000000E+000	1,2965555E+000
2	1	0	1	0	0	1	2,105479922271922E+004	5,548291115297211E-010	1,496071434894897E-002	1,3000113E+000	1,3575532E+001	13	1,496071434304641E-002	0	1,2278456E+001	1,3557781E-004	2,031307841995066E-004	0,000000000000000E+000	1,759287124456939E+004	0,000000000000000E+000	9,986924259825909E-003	0,000000000000000E+000	1,496071434304641E-002	1,496071434304641E-002	0,0000000E+000	1,3000113E+000	0,0000000E+000	0,000000000000000E+000	1,2970762E+000
3	1	0	0	0	0	1	2,111479942199279E+004	0,000000000000000E+000	1,496071546140189E-002	0,0000000E+000	1,4815627E+001	14	1,496071434304641E-002	0	1,3575144E+001	0,0000000E+000	2,031307841995066E-004	0,000000000000000E+000	1,759287124456939E+004	0,000000000000000E+000	0,000000000000000E+000	0,000000000000000E+000	1,496071434304641E-002	1,496071434304641E-002	0,0000000E+000	0,0000000E+000	0,0000000E+000	0,000000000000000E+000	1,2404833E+000