Folder: InES-Datenverarbeitung/SAMPLE-MPT/20220309_SSB_Cell_03_Form01 (part 8)

File: 20220309_(Form02C)EIS_charging_10bis16V_step_01V+(1C+EIS)50cycle_15_GEIS_C08.mpt
EC-Lab ASCII FILE
Nb header lines : 72

Galvano Electrochemical Impedance Spectroscopy

Run on channel : 8 (SN 14384)
User :
CE vs. WE compliance from -10 V to 10 V
Electrode connection : standard
Potential control : Ewe-Ece
Ewe ctrl range : min = 0,00 V, max = 5,00 V
Safety Limits :
	Do not start on E overload
Acquisition started on : 03/09/2022 13:55:05.456
Technique started on : 03/10/2022 03:51:26.025
Loaded Setting File :  C:\DATA\x_Data_VMP3\Extern\InES\Binbin\001_Testing_Profiles\20220308_(Form02C)EIS_charging_10bis16V_step_01V+(1C+EIS)50cycle.mps
Saved on :
	File : 20220309_(Form02C)EIS_charging_10bis16V_step_01V+(1C+EIS)50cycle_15_GEIS_C08.mpr
	Directory : C:\DATA\x_Data_VMP3\Extern\InES\Binbin\20220309_SSB_Cell_03_Form01\
	Host : 134.169.45.143
Device : VMP3 (SN 0787)
Address : 134.169.45.150
EC-Lab for windows v11.42 (software)
Internet server v11.40 (firmware)
Command interpretor v11.40 (firmware)
Electrode material :
Initial state :
Electrolyte :
Comments :
Electrode surface area : 0,000 cm²
Characteristic mass : 0,001 g
Equivalent Weight : 0,000 g/eq.
Density : 0,000 g/cm3
Volume (V) : 0,001 cm³
Record Ece
Record Power
Cycle Definition : Charge/Discharge alternance
Mode                Single sine
Is                  0,000
unit Is             µA
vs.                 <None>
tIs (h:m:s)         0:00:0,0000
record              0
dE (mV)             0,000
dt (s)              0,000
fi                  1,000
unit fi             MHz
ff                  5,000
unit ff             mHz
Nd                  6
Points              per decade
spacing             Logarithmic
Ia/Va               Ia
Ia                  5,000
unit  Ia            µA
va pourcent         0,10
pw                  0,10
Na                  2
corr                0
E range min (V)     0,000
E range max (V)     5,000
I Range             10 µA
Bandwidth           5
nc cycles           0
goto Ns'            0
nr cycles           0
inc. cycle          0

Number of loops : 1
Loop 0 from point number 0 to 49

freq/Hz	Re(Z)/Ohm	-Im(Z)/Ohm	|Z|/Ohm	Phase(Z)/deg	time/s	<Ewe>/V	<I>/mA	Cs/µF	Cp/µF	cycle number	|Ewe|/V	|I|/A	Ns	I Range	(Q-Qo)/mA.h	<Ece>/V	|Ece|/V	Phase(Zce)/deg	|Zce|/Ohm	Re(Zce)/Ohm	-Im(Zce)/Ohm	Phase(Zwe-ce)/deg	|Zwe-ce|/Ohm	Re(Zwe-ce)/Ohm	-Im(Zwe-ce)/Ohm	P/W	Re(Y)/Ohm-1	Im(Y)/Ohm-1	|Y|/Ohm-1	Phase(Y)/deg	dq/mA.h
1,0000186E+006	-2,8372356E+001	4,7274616E+001	5,5135105E+001	-1,2097052E+002	5,018056854900997E+004	1,3575960E+001	1,1651785E-005	3,3665423E-003	2,4750482E-003	1,000000000000000E+000	2,8287855E-004	5,1306433E-006	0	14	1,486327838211171E-009	1,1981535E+001	2,6111034E-004	8,9321754E+001	5,0892319E+001	6,0243279E-001	-5,0888752E+001	1,7258488E+002	2,8004118E+001	-2,7769924E+001	-3,6141357E+000	0,0000000E+000	-9,3333814E-003	1,5551475E-002	1,8137265E-002	1,2097052E+002	1,486327838211171E-009
3,1029172E+005	1,4076324E+001	3,4223141E+001	3,7004948E+001	-6,7642136E+001	5,018185454907466E+004	1,3576086E+001	1,5195752E-005	1,4987531E-002	1,2818884E-002	1,000000000000000E+000	1,7944659E-004	4,8492593E-006	0	14	7,121256318467001E-009	1,1982031E+001	9,1672708E-005	-4,6190600E+000	1,8904476E+001	1,8843077E+001	1,5223871E+000	-4,7356861E+001	4,8594547E+001	3,2919403E+001	3,5745529E+001	0,0000000E+000	1,0279446E-002	2,4991957E-002	2,7023414E-002	6,7642136E+001	-4,249127724670476E-010
9,6283031E+004	9,2156944E+000	-5,8715448E+000	1,0927217E+001	3,2502209E+001	5,018274754911952E+004	1,3575953E+001	1,4847595E-005	-2,8152567E-001	-8,1283741E-002	1,000000000000000E+000	5,2379582E-005	4,7934973E-006	0	14	9,776844033664941E-009	1,1981173E+001	1,6049267E-004	-4,0854195E+001	3,3481331E+001	2,5324497E+001	2,1901356E+001	-2,4895617E+001	3,8078598E+001	3,4540192E+001	1,6029812E+001	0,0000000E+000	7,7180751E-002	-4,9173743E-002	9,1514617E-002	-3,2502209E+001	3,506233627379933E-010
2,9876783E+004	3,8471084E+000	-1,3336898E+000	4,0717282E+000	1,9120066E+001	5,018390254917764E+004	1,3575952E+001	1,4198211E-005	-3,9942153E+000	-4,2853230E-001	1,000000000000000E+000	1,9273262E-005	4,7334352E-006	0	14	9,599387518063748E-009	1,1982623E+001	2,1333800E-004	-2,3681217E+001	4,5070438E+001	4,1275249E+001	1,8102432E+001	-2,0386488E+001	4,8137489E+001	4,5122356E+001	1,6768742E+001	0,0000000E+000	2,3204748E-001	-8,0444664E-002	2,4559596E-001	-1,9120066E+001	-9,912439725465244E-010
9,2692256E+003	1,1999425E-001	-3,6867051E+000	3,6886573E+000	8,8135803E+001	5,018505754923564E+004	1,3575998E+001	1,8089902E-005	-4,6573434E+000	-4,6524153E+000	1,000000000000000E+000	1,7513634E-005	4,7479698E-006	0	14	1,288258675673306E-008	1,1981363E+001	2,8297803E-004	-1,7342501E+001	5,9599796E+001	5,6890385E+001	1,7765686E+001	-1,3871907E+001	5,8723087E+001	5,7010380E+001	1,4078981E+001	0,0000000E+000	8,8190986E-003	-2,7095786E-001	2,7110136E-001	-8,8135803E+001	5,366121146115196E-009
2,8779956E+003	-7,2442198E-001	-1,4739777E+000	1,6423756E+000	1,1617293E+002	5,018626954929659E+004	1,3575824E+001	6,8973632E-006	-3,7517948E+001	-3,0218710E+001	1,000000000000000E+000	7,5537132E-006	4,5992606E-006	0	14	2,552593443487833E-008	1,1982947E+001	3,2292152E-004	-1,3266397E+001	7,0211617E+001	6,8337921E+001	1,6112089E+001	-1,2215830E+001	6,9179909E+001	6,7613503E+001	1,4638111E+001	0,0000000E+000	-2,6856333E-001	-5,4644436E-001	6,0887414E-001	-1,1617293E+002	4,306307448514544E-009
8,9299957E+002	1,0207415E-001	-1,2095418E+000	1,2138412E+000	8,5176193E+001	5,018783554937539E+004	1,3575736E+001	7,7314626E-006	-1,4734927E+002	-1,4630731E+002	1,000000000000000E+000	5,8143378E-006	4,7900317E-006	0	14	2,508018284864496E-008	1,1980905E+001	3,8706101E-004	-7,1675444E+000	8,0805519E+001	8,0174065E+001	1,0082203E+001	-6,3071170E+000	8,0764984E+001	8,0276138E+001	8,8726616E+000	0,0000000E+000	6,9277503E-002	-8,2091302E-001	8,2383102E-001	-8,5176193E+001	-1,446834383033195E-009
2,7686047E+002	-1,8539437E+000	1,6075480E+000	2,4538374E+000	-1,3907156E+002	5,018916654944234E+004	1,3575801E+001	6,4584888E-006	3,5759811E+002	1,5347285E+002	1,000000000000000E+000	1,1688612E-005	4,7634012E-006	0	14	2,820453087163817E-008	1,1981592E+001	4,2047520E-004	-3,4753232E+000	8,8272057E+001	8,8109726E+001	5,3509326E+000	-4,6122131E+000	8,6536011E+001	8,6255783E+001	6,9584808E+000	0,0000000E+000	-3,0789670E-001	2,6697609E-001	4,0752497E-001	1,3907156E+002	9,301616450759147E-010
8,5907173E+001	1,3374732E+001	4,1759090E+000	1,4011483E+001	-1,7339605E+001	5,019049754950928E+004	1,3575797E+001	6,4704286E-006	4,4364917E+002	3,9407013E+001	1,000000000000000E+000	6,6680172E-005	4,7589660E-006	0	14	3,699360473783347E-008	1,1982718E+001	3,6090787E-004	-1,8732238E+000	7,5837456E+001	7,5796928E+001	2,4789822E+000	-4,2680783E+000	8,9419647E+001	8,9171661E+001	6,6548910E+000	0,0000000E+000	6,8126626E-002	2,1270752E-002	7,1370035E-002	1,7339605E+001	4,778202698994130E-009
2,6682035E+001	8,0381956E+000	-7,4762735E+000	1,0977580E+001	4,2925697E+001	5,019182554957608E+004	1,3576179E+001	5,7941952E-006	-7,9784033E+002	-3,7006082E+002	1,000000000000000E+000	5,2259507E-005	4,7605672E-006	0	14	3,747828139502316E-008	1,1981211E+001	4,5833774E-004	-4,0350175E+000	9,6277969E+001	9,6039322E+001	6,7747092E+000	3,8621277E-001	1,0407988E+002	1,0407751E+002	-7,0156431E-001	0,0000000E+000	6,6702999E-002	-6,2040024E-002	9,1094755E-002	-4,2925697E+001	4,123894625763566E-009
[...]
2,5682116E+000	2,1441863E+000	5,7465854E+000	6,1335778E+000	-6,9538269E+001	5,019503654973756E+004	1,3576235E+001	6,5119793E-006	1,0783990E+004	9,4661074E+003	1,000000000000000E+000	2,9191704E-005	4,7593271E-006	0	14	2,072812237267701E-008	1,1984074E+001	5,0133490E-004	-4,7065153E+000	1,0533735E+002	1,0498215E+002	8,6431227E+000	-7,6504416E+000	1,0808847E+002	1,0712634E+002	1,4389708E+001	0,0000000E+000	5,6994740E-002	1,5275030E-001	1,6303697E-001	6,9538269E+001	-5,761433826196733E-008
7,9621863E-001	2,7626987E+000	-2,0359843E+000	3,4318707E+000	3,6388538E+001	5,020074255002453E+004	1,3576237E+001	7,1125596E-006	-9,8177828E+004	-3,4554164E+004	1,000000000000000E+000	1,6331804E-005	4,7588633E-006	0	14	-4,098442840318563E-008	1,1981516E+001	5,5191282E-004	-1,0232583E+001	1,1597577E+002	1,1413114E+002	2,0602446E+001	-9,0250044E+000	1,1835912E+002	1,1689384E+002	1,8566462E+001	0,0000000E+000	2,3456959E-001	-1,7286719E-001	2,9138628E-001	-3,6388538E+001	7,993943290067821E-008
2,4724665E-001	7,2741518E+000	-5,6040277E+000	9,1825056E+000	3,7610760E+001	5,021899555094249E+004	1,3576082E+001	6,7757305E-006	-1,1486546E+005	-4,2782641E+004	1,000000000000000E+000	4,3697612E-005	4,7587896E-006	0	14	9,001074043492912E-007	1,1982509E+001	5,8691262E-004	-1,4931521E+001	1,2333233E+002	1,1916795E+002	3,1778351E+001	-1,1695404E+001	1,2912280E+002	1,2644210E+002	2,6174324E+001	0,0000000E+000	8,6270034E-002	-6,6462681E-002	1,0890274E-001	-3,7610760E+001	3,080688757670613E-007
7,6773763E-002	7,2693787E+000	-1,0614336E+000	7,3464622E+000	8,3072996E+000	5,027769355389453E+004	1,3576173E+001	6,5663571E-006	-1,9530550E+006	-4,0770273E+004	1,000000000000000E+000	3,4960656E-005	4,7588424E-006	0	14	-1,875340853218202E-006	1,1984933E+001	7,8317453E-004	-9,8047285E+000	1,6457249E+002	1,6216872E+002	2,8025187E+001	-9,0420198E+000	1,7157014E+002	1,6943810E+002	2,6963753E+001	0,0000000E+000	1,3469170E-001	-1,9666919E-002	1,3611995E-001	-8,3072996E+000	-1,747976224295295E-006
2,3795672E-002	1,6428707E+001	-2,3699968E+001	2,8837318E+001	5,5270481E+001	5,046680456340511E+004	1,3575579E+001	6,6598773E-006	-2,8221128E+005	-1,9061636E+005	1,000000000000000E+000	1,3722733E-004	4,7586714E-006	0	14	-1,797936575927148E-006	1,1982814E+001	9,7278500E-004	-2,2104975E+001	2,0442366E+002	1,8939769E+002	7,6925583E+001	-1,4498771E+001	2,1259697E+002	2,0582640E+002	5,3225616E+001	0,0000000E+000	1,9755756E-002	-2,8499553E-002	3,4677289E-002	-5,5270481E+001	2,865659157019984E-006
7,3873415E-003	2,0782312E+001	1,4381567E-003	2,0782312E+001	-3,9649247E-003	5,107609959404741E+004	1,3575004E+001	6,6228977E-006	1,4980480E+010	7,1738190E+001	1,000000000000000E+000	9,8897464E-005	4,7587323E-006	0	14	2,938807170432149E-005	1,1987205E+001	9,2707964E-004	-2,2499329E+001	1,9481651E+002	1,7998787E+002	7,4550941E+001	-2,0371571E+001	2,1416518E+002	2,0077019E+002	7,4552383E+001	0,0000000E+000	4,8117843E-002	3,3298024E-006	4,8117843E-002	3,9649247E-003	1,074341069894227E-005
5,0018891E-003	-3,8408105E+000	-2,9051565E+001	2,9304356E+001	9,7531212E+001	5,149744161523739E+004	1,3575430E+001	6,0113407E-006	-1,0952583E+006	-1,0764435E+006	1,000000000000000E+000	1,3945774E-004	4,7589424E-006	0	14	2,925265636101034E-005	1,1988999E+001	1,0379192E-003	-2,2403761E+001	2,1809871E+002	2,0163684E+002	8,3124191E+001	-1,5289692E+001	2,0505394E+002	1,9779604E+002	5,4072624E+001	0,0000000E+000	-4,4725863E-003	-3,3830248E-002	3,4124620E-002	-9,7531212E+001	-1,354153433111506E-007