Folder: InES-Datenverarbeitung/SAMPLE-MPT/20220309_SSB_Cell_03_Form01 (part 6)

File: 20220309_(Form02C)EIS_charging_10bis16V_step_01V+(1C+EIS)50cycle_11_GEIS_C08.mpt
EC-Lab ASCII FILE
Nb header lines : 72

Galvano Electrochemical Impedance Spectroscopy

Run on channel : 8 (SN 14384)
User :
CE vs. WE compliance from -10 V to 10 V
Electrode connection : standard
Potential control : Ewe-Ece
Ewe ctrl range : min = 0,00 V, max = 5,00 V
Safety Limits :
	Do not start on E overload
Acquisition started on : 03/09/2022 13:55:05.456
Technique started on : 03/09/2022 21:04:16.430
Loaded Setting File :  C:\DATA\x_Data_VMP3\Extern\InES\Binbin\001_Testing_Profiles\20220308_(Form02C)EIS_charging_10bis16V_step_01V+(1C+EIS)50cycle.mps
Saved on :
	File : 20220309_(Form02C)EIS_charging_10bis16V_step_01V+(1C+EIS)50cycle_11_GEIS_C08.mpr
	Directory : C:\DATA\x_Data_VMP3\Extern\InES\Binbin\20220309_SSB_Cell_03_Form01\
	Host : 134.169.45.143
Device : VMP3 (SN 0787)
Address : 134.169.45.150
EC-Lab for windows v11.42 (software)
Internet server v11.40 (firmware)
Command interpretor v11.40 (firmware)
Electrode material :
Initial state :
Electrolyte :
Comments :
Electrode surface area : 0,000 cm²
Characteristic mass : 0,001 g
Equivalent Weight : 0,000 g/eq.
Density : 0,000 g/cm3
Volume (V) : 0,001 cm³
Record Ece
Record Power
Cycle Definition : Charge/Discharge alternance
Mode                Single sine
Is                  0,000
unit Is             µA
vs.                 <None>
tIs (h:m:s)         0:00:0,0000
record              0
dE (mV)             0,000
dt (s)              0,000
fi                  1,000
unit fi             MHz
ff                  5,000
unit ff             mHz
Nd                  6
Points              per decade
spacing             Logarithmic
Ia/Va               Ia
Ia                  5,000
unit  Ia            µA
va pourcent         0,10
pw                  0,10
Na                  2
corr                0
E range min (V)     0,000
E range max (V)     5,000
I Range             10 µA
Bandwidth           5
nc cycles           0
goto Ns'            0
nr cycles           0
inc. cycle          0

Number of loops : 1
Loop 0 from point number 0 to 49

freq/Hz	Re(Z)/Ohm	-Im(Z)/Ohm	|Z|/Ohm	Phase(Z)/deg	time/s	<Ewe>/V	<I>/mA	Cs/µF	Cp/µF	cycle number	|Ewe|/V	|I|/A	Ns	I Range	(Q-Qo)/mA.h	<Ece>/V	|Ece|/V	Phase(Zce)/deg	|Zce|/Ohm	Re(Zce)/Ohm	-Im(Zce)/Ohm	Phase(Zwe-ce)/deg	|Zwe-ce|/Ohm	Re(Zwe-ce)/Ohm	-Im(Zwe-ce)/Ohm	P/W	Re(Y)/Ohm-1	Im(Y)/Ohm-1	|Y|/Ohm-1	Phase(Y)/deg	dq/mA.h
1,0000186E+006	-2,5951643E+001	4,7875320E+001	5,4456718E+001	-1,1846067E+002	2,575097364445112E+004	1,3577649E+001	1,2269052E-005	3,3243012E-003	2,5693355E-003	1,000000000000000E+000	2,8070188E-004	5,1545867E-006	0	14	1,012774827432376E-009	1,2201347E+001	2,0795876E-004	4,5361740E+001	4,0344410E+001	2,8347126E+001	-2,8707348E+001	-8,2876495E+001	1,9317078E+001	2,3954830E+000	1,9167973E+001	0,0000000E+000	-8,7510860E-003	1,6143912E-002	1,8363208E-002	1,1846067E+002	1,012774827432376E-009
3,1029172E+005	1,2828715E+001	3,7512554E+001	3,9645527E+001	-7,1120102E+001	2,575225964451220E+004	1,3577621E+001	1,4383305E-005	1,3673299E-002	1,2241600E-002	1,000000000000000E+000	1,9268655E-004	4,8602342E-006	0	14	1,830530314540132E-010	1,2200585E+001	1,8724689E-004	-1,1783378E+001	3,8526310E+001	3,7714432E+001	7,8675370E+000	-4,1919037E+001	6,7926155E+001	5,0543148E+001	4,5380093E+001	0,0000000E+000	8,1619667E-003	2,3866475E-002	2,5223527E-002	7,1120102E+001	-3,567896838616333E-009
9,6283031E+004	1,0190037E+001	-6,3928161E+000	1,2029337E+001	3,2102493E+001	2,575315264455462E+004	1,3577543E+001	1,8304887E-005	-2,5857002E-001	-7,3026285E-002	1,000000000000000E+000	5,7795638E-005	4,8045572E-006	0	14	1,331453201257520E-008	1,2202510E+001	2,3593938E-004	-3,6319214E+001	4,9107414E+001	3,9567303E+001	2,9085506E+001	-2,4516172E+001	5,4687759E+001	4,9757339E+001	2,2692690E+001	0,0000000E+000	7,0419408E-002	-4,4178281E-002	8,3130099E-002	-3,2102493E+001	7,405212324404904E-009
2,9876783E+004	1,0253137E+000	-4,7052693E-001	1,1281240E+000	2,4650873E+001	2,575430764460948E+004	1,3577566E+001	1,3776495E-005	-1,1321444E+001	-1,9695052E+000	1,000000000000000E+000	5,3397121E-006	4,7332669E-006	0	14	1,858683090596161E-008	1,2200185E+001	4,1228152E-004	-3,6535873E+001	8,7102951E+001	6,9985855E+001	5,1854649E+001	-3,5889732E+001	8,7652237E+001	7,1011169E+001	5,1384121E+001	0,0000000E+000	8,0564386E-001	-3,6971819E-001	8,8642740E-001	-2,4650873E+001	3,778451003073415E-009
9,2692256E+003	-9,5150018E-001	-1,9534539E+000	2,1728632E+000	1,1597007E+002	2,575546264466434E+004	1,3577466E+001	1,4059386E-005	-8,7896891E+000	-7,1041980E+000	1,000000000000000E+000	1,0328889E-005	4,7535846E-006	0	14	1,831665829268382E-008	1,2202229E+001	6,7730009E-004	-3,0196455E+001	1,4248196E+002	1,2314801E+002	7,1663651E+001	-2,9703728E+001	1,4068227E+002	1,2219651E+002	6,9710197E+001	0,0000000E+000	-2,0153205E-001	-4,1375035E-001	4,6022224E-001	-1,1597007E+002	1,458692618724753E-009
2,8779956E+003	1,2820883E+000	-1,1446253E+000	1,7186965E+000	4,1757900E+001	2,575667464472190E+004	1,3577371E+001	6,7701071E-006	-4,8313293E+001	-2,1428658E+001	1,000000000000000E+000	7,8982985E-006	4,5955167E-006	0	14	1,642188453771117E-008	1,2202390E+001	9,1482617E-004	-2,3546135E+001	1,9906927E+002	1,8249451E+002	7,9525658E+001	-2,3098331E+001	1,9979346E+002	1,8377660E+002	7,8381035E+001	0,0000000E+000	4,3402982E-001	-3,8749397E-001	5,8183628E-001	-4,1757900E+001	-2,764517735196630E-009
8,9299957E+002	2,4028802E+000	2,2805941E+000	3,3128450E+000	-4,3504341E+001	2,575824164479633E+004	1,3577432E+001	5,9901286E-006	7,8148544E+001	3,7035194E+001	1,000000000000000E+000	1,5867070E-005	4,7895601E-006	0	14	1,961668017650532E-008	1,2201387E+001	1,2375307E-003	-1,7876453E+001	2,5838089E+002	2,4590642E+002	7,9314026E+001	-1,8190561E+001	2,6137173E+002	2,4830930E+002	8,1594620E+001	0,0000000E+000	2,1894239E-001	2,0780011E-001	3,0185536E-001	4,3504341E+001	-9,108392340648419E-011
2,7686047E+002	1,4305296E+000	-1,9437244E-002	1,4306617E+000	7,7845544E-001	2,575957264485955E+004	1,3577416E+001	6,2323315E-006	-2,9574982E+004	-5,4590864E+000	1,000000000000000E+000	6,8124987E-006	4,7617818E-006	0	14	1,885946133282030E-008	1,2203993E+001	1,4824253E-003	-1,3935944E+001	3,1131735E+002	3,0215390E+002	7,4976730E+001	-1,3869361E+001	3,1270132E+002	3,0358444E+002	7,4957291E+001	0,0000000E+000	6,9891280E-001	-9,4964402E-003	6,9897729E-001	-7,7845544E-001	-8,630727191069168E-010
8,5907173E+001	-9,7273388E+000	-1,0115212E+001	1,4033483E+001	1,3388016E+002	2,576090264492272E+004	1,3577348E+001	6,6241846E-006	-1,8315369E+002	-9,5155693E+001	1,000000000000000E+000	6,6765191E-005	4,7575641E-006	0	14	2,513185263137530E-008	1,2201066E+001	1,8008198E-003	-1,2319360E+001	3,7851718E+002	3,6980127E+002	8,0760620E+001	-1,1100262E+001	3,6693872E+002	3,6007394E+002	7,0645409E+001	0,0000000E+000	-4,9392749E-002	-5,1362246E-002	7,1258150E-002	-1,3388016E+002	1,803263178241349E-009
2,6682035E+001	1,5693924E+001	4,2025127E+000	1,6246857E+001	-1,4990933E+001	2,576223064498580E+004	1,3577396E+001	5,2970968E-006	1,4193585E+003	9,4966736E+001	1,000000000000000E+000	7,7309996E-005	4,7584585E-006	0	14	1,935160236323302E-008	1,2200946E+001	1,9117623E-003	-9,6302166E+000	4,0176083E+002	3,9609921E+002	6,7210052E+001	-9,8383036E+000	4,1793942E+002	4,1179315E+002	7,1412567E+001	0,0000000E+000	5,9455611E-002	1,5920999E-002	6,1550368E-002	1,4990933E+001	9,393914499216619E-011
[...]
2,5682116E+000	5,5868106E+000	-2,5833752E+000	6,1551833E+000	2,4816107E+001	2,576544064513827E+004	1,3577406E+001	6,4161909E-006	-2,3988430E+004	-4,2256631E+003	1,000000000000000E+000	2,9285457E-005	4,7578528E-006	0	14	1,145891612569206E-007	1,2200706E+001	2,5498779E-003	-1,1664080E+001	5,3593036E+002	5,2486328E+002	1,0835084E+002	-1,1276428E+001	5,4089191E+002	5,3045007E+002	1,0576746E+002	0,0000000E+000	1,4746262E-001	-6,8187609E-002	1,6246469E-001	-2,4816107E+001	5,349576900691015E-008
7,9621863E-001	4,4863968E+000	3,2760866E+000	5,5552225E+000	-3,6137917E+001	2,577114664540929E+004	1,3577421E+001	7,3303308E-006	6,1014418E+004	2,1219750E+004	1,000000000000000E+000	2,6429494E-005	4,7575941E-006	0	14	-1,976556700587682E-007	1,2205677E+001	3,0175084E-003	-1,1693227E+001	6,3425092E+002	6,2108813E+002	1,2854460E+002	-1,1899252E+001	6,3931226E+002	6,2557452E+002	1,3182069E+002	0,0000000E+000	1,4537668E-001	1,0615794E-001	1,8001080E-001	3,6137917E+001	-1,743988568945143E-007
2,4724665E-001	7,6542101E+000	-1,1277731E-001	7,6550407E+000	8,4413624E-001	2,578939964627626E+004	1,3577353E+001	6,8501622E-006	-5,7077905E+006	-1,2388435E+003	1,000000000000000E+000	3,6419675E-005	4,7576068E-006	0	14	2,506999195614601E-007	1,2201066E+001	3,7322030E-003	-1,5231476E+001	7,8447070E+002	7,5691406E+002	2,0609557E+002	-1,5078094E+001	7,9182928E+002	7,6456830E+002	2,0598279E+002	0,0000000E+000	1,3061871E-001	-1,9245389E-003	1,3063288E-001	-8,4413624E-001	4,836464535096133E-007
7,6773763E-002	8,6730375E+000	1,1278866E+001	1,4227944E+001	-5,2441025E+001	2,584809664906422E+004	1,3577481E+001	6,8062582E-006	1,8379847E+005	1,1550171E+005	1,000000000000000E+000	6,7689172E-005	4,7574808E-006	0	14	2,124159983810601E-006	1,2211490E+001	4,1627781E-003	-1,4778272E+001	8,7499628E+002	8,4605157E+002	2,2319325E+002	-1,5340277E+001	8,8630206E+002	8,5472461E+002	2,3447212E+002	0,0000000E+000	4,2843696E-002	5,5716153E-002	7,0284225E-002	5,2441025E+001	1,528719648067004E-007
2,3795672E-002	3,2987312E+001	4,5892935E+000	3,3305019E+001	-7,9203215E+000	2,603720865804655E+004	1,3576434E+001	6,8189238E-006	1,4573918E+006	2,7672514E+004	1,000000000000000E+000	1,5844632E-004	4,7574308E-006	0	14	-7,880667151766451E-006	1,2229972E+001	6,6956519E-003	-1,0445608E+001	1,4074092E+003	1,3840848E+003	2,5516612E+002	-1,0387248E+001	1,4406826E+003	1,4170721E+003	2,5975540E+002	0,0000000E+000	2,9739080E-002	4,1373898E-003	3,0025505E-002	7,9203215E+000	-5,037565556290323E-006
7,3873415E-003	2,5472798E+000	7,5923257E+000	8,0082483E+000	-7,1453026E+001	2,664650368698651E+004	1,3576553E+001	6,6591192E-006	2,8376388E+006	2,5505375E+006	1,000000000000000E+000	3,8098933E-005	4,7574617E-006	0	14	8,025302331149797E-006	1,2248694E+001	1,2167750E-002	-2,9580597E+001	2,5576138E+003	2,2242600E+003	1,2625593E+003	-2,9700060E+001	2,5635828E+003	2,2268074E+003	1,2701516E+003	0,0000000E+000	3,9719302E-002	1,1838584E-001	1,2487125E-001	7,1453026E+001	1,558262958861737E-005
5,0018891E-003	-4,6150360E+000	-1,3889678E+001	1,4636315E+001	1,0837978E+002	2,706784570699919E+004	1,3576643E+001	6,3256057E-006	-2,2908353E+006	-2,0630736E+006	1,000000000000000E+000	6,9625828E-005	4,7570597E-006	0	14	3,615813437557527E-005	1,2263367E+001	1,4416868E-002	-3,3876152E+001	3,0306257E+003	2,5161599E+003	1,6892697E+003	-3,3706123E+001	3,0190654E+003	2,5115449E+003	1,6753800E+003	0,0000000E+000	-2,1543270E-002	-6,4837866E-002	6,8323210E-002	-1,0837978E+002	2,813283204442547E-005

File: 20220309_(Form02C)EIS_charging_10bis16V_step_01V+(1C+EIS)50cycle_12_GCPL6_C08.mpt
EC-Lab ASCII FILE
Nb header lines : 76

Galvanostatic Cycling with Potential Limitation 6

Run on channel : 8 (SN 14384)
User :
CE vs. WE compliance from -10 V to 10 V
Electrode connection : standard
Potential control : Ewe-Ece
Ecell ctrl range : min = 0,00 V, max = 5,00 V
Safety Limits :
	Do not start on E overload
Acquisition started on : 03/09/2022 13:55:05.456
Technique started on : 03/09/2022 21:26:13.354
Loaded Setting File :  C:\DATA\x_Data_VMP3\Extern\InES\Binbin\001_Testing_Profiles\20220308_(Form02C)EIS_charging_10bis16V_step_01V+(1C+EIS)50cycle.mps
Saved on :
	File : 20220309_(Form02C)EIS_charging_10bis16V_step_01V+(1C+EIS)50cycle_12_GCPL6_C08.mpr
	Directory : C:\DATA\x_Data_VMP3\Extern\InES\Binbin\20220309_SSB_Cell_03_Form01\
	Host : 134.169.45.143
Device : VMP3 (SN 0787)
Address : 134.169.45.150
EC-Lab for windows v11.42 (software)
Internet server v11.40 (firmware)
Command interpretor v11.40 (firmware)
Electrode material :
Initial state :
Electrolyte :
Comments :
Electrode surface area : 0,000 cm²
Characteristic mass : 0,001 g
Equivalent Weight : 0,000 g/eq.
Density : 0,000 g/cm3
Volume (V) : 0,001 cm³
Record Ece
Record Power
Cycle Definition : Charge/Discharge alternance
Ns                  0                   1
Set I/C             I                   I
Is                  0,000               20,000
unit Is             mA                  µA
vs.                 <None>              <None>
N                   1,00                1,00
I sign              > 0                 > 0
t1 (h:m:s)          0:00:0,0000         20:00:0,0000
I Range             100 µA              100 µA
Bandwidth           5                   5
dE1 (mV)            0,00                0,00
dt1 (s)             0,0000              5,0000
EM (V)              0,000               1,500
tM (h:m:s)          0:00:0,0000         10:00:0,0000
Im                  0,000               10,000
unit Im             mA                  µA
dI/dt               0,000               0,000
dunit dI/dt         mA/s                mA/s
E range min (V)     0,000               0,000
E range max (V)     5,000               5,000
dq                  0,000               1,000
unit dq             mA.h                mA.h
dtq (s)             0,0000              120,0000
dQM                 0,000               0,000
unit dQM            mA.h                mA.h
dxM                 0,000               0,000
delta SoC (%)       pass                pass
tR (h:m:s)          0:00:10,0000        0:01:0,0000
dER/dt (mV/h)       0,0                 0,1
dER (mV)            0,00                0,00
dtR (s)             1,0000              120,0000
EL (V)              pass                pass
goto Ns'            0                   0
nc cycles           0                   0

Number of loops : 1
Loop 0 from point number 0 to 760

mode	ox/red	error	control changes	Ns changes	counter inc.	Ns	time/s	dq/mA.h	(Q-Qo)/mA.h	control/V/mA	Ewe/V	I Range	Q charge/discharge/mA.h	half cycle	Ece/V	P/W	Energy charge/W.h	Energy discharge/W.h	Capacitance charge/µF	Capacitance discharge/µF	<I>/mA	Q discharge/mA.h	Q charge/mA.h	Capacity/mA.h	Efficiency/%	control/V	control/mA	cycle number	 Ecell/V
3	1	0	1	0	0	0	2,706789750700165E+004	0,000000000000000E+000	0,000000000000000E+000	0,0000000E+000	1,0514146E+001	14	0,000000000000000E+000	0	1,3589435E+001	0,0000000E+000	0,000000000000000E+000	0,000000000000000E+000	0,000000000000000E+000	0,000000000000000E+000	0,000000000000000E+000	0,000000000000000E+000	0,000000000000000E+000	0,000000000000000E+000	0,0000000E+000	0,0000000E+000	0,0000000E+000	0,000000000000000E+000	-3,0752888E+000
1	1	0	0	0	0	1	2,719289770548826E+004	2,785638667104973E-005	6,406953485495308E-004	2,0000001E-002	1,3577858E+001	13	6,406953485495306E-004	0	1,2196671E+001	2,7232565E-004	8,698698373129245E-006	0,000000000000000E+000	7,528459477896495E+002	0,000000000000000E+000	2,005659864598492E-002	0,000000000000000E+000	6,406953485495306E-004	6,406953485495306E-004	0,0000000E+000	0,0000000E+000	2,0000001E-002	0,000000000000000E+000	1,3811874E+000
1	1	0	0	0	0	1	2,736289770343003E+004	2,785669028013945E-005	1,587821117160842E-003	2,0000001E-002	1,3575773E+001	13	1,587821117160842E-003	0	1,2175503E+001	2,7228682E-004	2,155765119137808E-005	0,000000000000000E+000	1,867031907338725E+003	0,000000000000000E+000	2,005681724453217E-002	0,000000000000000E+000	1,587821117160842E-003	1,587821117160842E-003	0,0000000E+000	0,0000000E+000	2,0000001E-002	0,000000000000000E+000	1,4002705E+000
1	1	0	0	0	0	1	2,753289770137181E+004	2,785578174940828E-005	2,534925791187419E-003	2,0000001E-002	1,3577698E+001	13	2,534925791187418E-003	0	1,2164639E+001	2,7231654E-004	3,441651541766516E-005	0,000000000000000E+000	2,978807977766083E+003	0,000000000000000E+000	2,005616310239781E-002	0,000000000000000E+000	2,534925791187418E-003	2,534925791187418E-003	0,0000000E+000	0,0000000E+000	2,0000001E-002	0,000000000000000E+000	1,4130592E+000
1	1	0	0	0	0	1	2,770289769931359E+004	2,785670445476555E-005	3,482031707036516E-003	2,0000001E-002	1,3575773E+001	13	3,482031707036515E-003	0	1,2153172E+001	2,7228694E-004	4,727542203608902E-005	0,000000000000000E+000	4,094330418672573E+003	0,000000000000000E+000	2,005682745026309E-002	0,000000000000000E+000	3,482031707036515E-003	3,482031707036515E-003	0,0000000E+000	0,0000000E+000	2,0000001E-002	0,000000000000000E+000	1,4226007E+000
1	1	0	0	0	0	1	2,787289769725536E+004	2,785690814225624E-005	4,429145478320101E-003	2,0000001E-002	1,3577538E+001	13	4,429145478320102E-003	0	1,2146157E+001	2,7232431E-004	6,013439968406101E-005	0,000000000000000E+000	5,204990206606106E+003	0,000000000000000E+000	2,005697410525816E-002	0,000000000000000E+000	4,429145478320102E-003	4,429145478320102E-003	0,0000000E+000	0,0000000E+000	2,0000001E-002	0,000000000000000E+000	1,4313803E+000
1	1	0	0	0	0	1	2,804289769519714E+004	2,785633977709545E-005	5,376275603451042E-003	2,0000001E-002	1,3577818E+001	13	5,376275603451043E-003	0	1,2139462E+001	2,7232437E-004	7,299356363933468E-005	0,000000000000000E+000	6,317449047139219E+003	0,000000000000000E+000	2,005656488233743E-002	0,000000000000000E+000	5,376275603451043E-003	5,376275603451043E-003	0,0000000E+000	0,0000000E+000	2,0000001E-002	0,000000000000000E+000	1,4383564E+000
1	1	0	0	0	0	1	2,821289769313892E+004	2,785674222341428E-005	6,323400761055449E-003	2,0000001E-002	1,3576856E+001	13	6,323400761055449E-003	0	1,2132526E+001	2,7230903E-004	8,585274497191137E-005	0,000000000000000E+000	7,432712912512759E+003	0,000000000000000E+000	2,005685464369050E-002	0,000000000000000E+000	6,323400761055449E-003	6,323400761055449E-003	0,0000000E+000	0,0000000E+000	2,0000001E-002	0,000000000000000E+000	1,4443293E+000
1	1	0	0	0	0	1	2,838289769108070E+004	2,785705919532726E-005	7,270532268240841E-003	2,0000001E-002	1,3577818E+001	13	7,270532268240841E-003	0	1,2127955E+001	2,7233141E-004	9,871179597045351E-005	0,000000000000000E+000	8,543315212618509E+003	0,000000000000000E+000	2,005708286347061E-002	0,000000000000000E+000	7,270532268240841E-003	7,270532268240841E-003	0,0000000E+000	0,0000000E+000	2,0000001E-002	0,000000000000000E+000	1,4498625E+000
[...]
1	1	0	0	0	0	1	2,974289767461491E+004	2,785620197984907E-005	1,484756660311141E-002	2,0000001E-002	1,3576534E+001	13	1,484756660311140E-002	0	1,2094059E+001	2,7229730E-004	2,015849471251203E-004	0,000000000000000E+000	1,745410197487904E+004	0,000000000000000E+000	2,005646566831884E-002	0,000000000000000E+000	1,484756660311140E-002	1,484756660311140E-002	0,0000000E+000	0,0000000E+000	2,0000001E-002	0,000000000000000E+000	1,4824753E+000
1	1	0	0	0	0	1	2,991289767255669E+004	2,785610467040291E-005	1,579468683561248E-002	2,0000001E-002	1,3576976E+001	13	1,579468683561247E-002	0	1,2091386E+001	2,7230519E-004	2,144434796857344E-004	0,000000000000000E+000	1,856481526587009E+004	0,000000000000000E+000	2,005639560551675E-002	0,000000000000000E+000	1,579468683561247E-002	1,579468683561247E-002	0,0000000E+000	0,0000000E+000	2,0000001E-002	0,000000000000000E+000	1,4855900E+000
1	1	0	0	0	0	1	3,008289767049847E+004	2,785692791713195E-005	1,674179824305936E-002	2,0000001E-002	1,3575372E+001	13	1,674179824305935E-002	0	1,2086480E+001	2,7228109E-004	2,273018063385788E-004	0,000000000000000E+000	1,968834572122837E+004	0,000000000000000E+000	2,005698834316884E-002	0,000000000000000E+000	1,674179824305935E-002	1,674179824305935E-002	0,0000000E+000	0,0000000E+000	2,0000001E-002	0,000000000000000E+000	1,4888916E+000
1	1	0	0	0	0	1	3,025289766844024E+004	2,785676551154918E-005	1,768892241254687E-002	2,0000001E-002	1,3576695E+001	13	1,768892241254686E-002	0	1,2085468E+001	2,7230603E-004	2,401603152281642E-004	0,000000000000000E+000	2,079317209130818E+004	0,000000000000000E+000	2,005687141114784E-002	0,000000000000000E+000	1,768892241254686E-002	1,768892241254686E-002	0,0000000E+000	0,0000000E+000	2,0000001E-002	0,000000000000000E+000	1,4912271E+000
1	1	0	0	0	0	1	3,042289766638202E+004	2,785634417956074E-005	1,863604664549842E-002	2,0000001E-002	1,3575853E+001	13	1,863604664549842E-002	0	1,2081670E+001	2,7228502E-004	2,530190830221418E-004	0,000000000000000E+000	2,191253344656641E+004	0,000000000000000E+000	2,005656805211248E-002	0,000000000000000E+000	1,863604664549842E-002	1,863604664549842E-002	0,0000000E+000	0,0000000E+000	2,0000001E-002	0,000000000000000E+000	1,4941835E+000
1	1	0	0	0	0	1	3,059289766432380E+004	2,785638423295071E-005	1,958316647882967E-002	2,0000001E-002	1,3577376E+001	13	1,958316647882966E-002	0	1,2080390E+001	2,7231596E-004	2,658778559287775E-004	0,000000000000000E+000	2,301472219915101E+004	0,000000000000000E+000	2,005659689055361E-002	0,000000000000000E+000	1,958316647882966E-002	1,958316647882966E-002	0,0000000E+000	0,0000000E+000	2,0000001E-002	0,000000000000000E+000	1,4969864E+000
1	1	0	0	0	0	1	3,076289766226558E+004	2,785669182168527E-005	2,053029942560713E-002	2,0000001E-002	1,3575853E+001	13	2,053029942560712E-002	0	1,2076077E+001	2,7228842E-004	2,787364516010025E-004	0,000000000000000E+000	2,413982328920102E+004	0,000000000000000E+000	2,005681835444518E-002	0,000000000000000E+000	2,053029942560712E-002	2,053029942560712E-002	0,0000000E+000	0,0000000E+000	2,0000001E-002	0,000000000000000E+000	1,4997768E+000
3	1	0	0	0	0	1	3,084322046129311E+004	0,000000000000000E+000	2,064327106710513E-002	0,0000000E+000	1,5064139E+001	14	2,064327110965791E-002	0	1,3574983E+001	0,0000000E+000	2,802706169032717E-004	3,725678952732088E-010	3,758037687206981E+004	3,082861381349109E+002	0,000000000000000E+000	0,000000000000000E+000	2,064327110965791E-002	2,064327110965791E-002	0,0000000E+000	0,0000000E+000	0,0000000E+000	0,000000000000000E+000	1,4891567E+000