Folder: InES-Datenverarbeitung/SAMPLE-MPT/20220309_SSB_Cell_03_Form01

Note: SAMPLE-MPT/20220309_SSB_Cell_03_Form01/20220309_(Form02C)EIS_charging_10bis16V_step_01V+(1C+EIS)50cycle_16_GCPL6_C08.JSON
{
  "general": {
    "ignoreNameFromHeader": 0,
    "ecType": 0,
    "arealWeight": 0,
    "multi": 0,
    "mergeTimestamp": 0,
    "lang1": "EN",
    "useLang2": 0,
    "graphsSheet": 1,
    "deleteSheet": 0,
    "emptyUnusedColumns": 0,
    "graphsTitleFromName": 0,
    "dqdvSmoothMethod": "none",
    "comparisonStddev": 1,
    "batalyseVersion": "2022.03"
  },
  "cell": {
    "electrodeLayers": 1,
    "externalWeight": 0,
    "format": "none",
    "externalVolume": "0.00"
  },
  "graphs": {
    "graphsTitleFromName": 0,
    "titleLang1": "",
    "titleLang2": "",
    "titleSize": 28,
    "axisTitlesSize": 28,
    "axisLabelsSize": 22,
    "legendSize": 14
  },
  "cyc": {
    "arealWeight": 0,
    "gCoat": 0,
    "amPercent": 90,
    "gAm": 0,
    "electrode": 1,
    "cellArea": "0,000",
    "nominalCap": 0.0001,
    "autoCapCycle": 0,
    "partialFirstCycle": 0,
    "disMinV": 0,
    "thickElec": 0,
    "thickElecCc": 0,
    "gCc": 0,
    "gSep": 0,
    "thickSep": 0,
    "separatorLayers": 0,
    "gElectrolyte": 0,
    "gCe": 0,
    "thickCe": 0,
    "thickCeCc": 0,
    "gCeCc": 0,
    "ignoreTinySteps": 1,
    "minStepLength": 0.05,
    "cyclesStr": "0",
    "autoCycles": 0,
    "autoThreshold": 5,
    "cyclesPerformanceStart": 1,
    "cyclesPerformanceEnd": 0,
    "amName1": "",
    "electName1": "",
    "amName2": "",
    "electName2": "",
    "currentDisp": "mAcm2",
    "showCharge": -1,
    "ratePrec": 1,
    "efficiencyAfterChange": 1,
    "firstCycleEfficiency": 1,
    "unitsStyle": 0,
    "pulseUnits": "Ohm",
    "curvesStyle": 0,
    "showPauseSteps": 0,
    "minDV": 0.0002,
    "dqdvSmoothMethod": "none",
    "dqdvSmoothPoints": 4,
    "dqdvMaskPause": 0,
    "dqdvMaskPotentiostatic": 0,
    "dcirFirstCycle": 1,
    "dcirShowCharge": 0,
    "dcirDelaySeconds": 10,
    "relativeCapacityBarCycle": 100,
    "cellCapAh": 0.0001
  },
  "graphSelection": {
    "test": {
      "n0": "capRetention_0010",
      "n1": "capRetention_0011",
      "n2": "capRetention_0110",
      "n3": "capRetention_0210",
      "n4": "capRetention_0012",
      "n5": "capRetention_0310",
      "n6": "capRetention_0021",
      "n7": "capRetention_0031",
      "n8": "capRetention_0023",
      "n9": "capRetention_0041",
      "n10": "capRetention_0600",
      "n11": "capRetention_0710",
      "n12": "capRetention_0820",
      "n13": "dcir",
      "n14": "capRetention_0900",
      "n15": "capRetention_0A00",
      "n16": "capRetention_0000",
      "n17": "capRetention_0C00",
      "n18": "capRetention_0D00",
      "n19": "energyDensity_0",
      "n20": "energyDensity_1",
      "n21": "capRetention_0E00",
      "n22": "differential_000",
      "n23": "differential_100",
      "n24": "differential_001",
      "n25": "differential_101",
      "n26": "differential_010",
      "n27": "differential_011",
      "n28": "additional_0",
      "n29": "additional_00000",
      "n30": "additional_00010",
      "n31": "additional_001",
      "n32": "additional_100",
      "n33": 

Note: README.md
# InES-Datenverarbeitung
Python mit MySQL

File: 20220309_(Form02C)EIS_charging_10bis16V_step_01V+(1C+EIS)50cycle_01_GEIS_C08.mpt
EC-Lab ASCII FILE
Nb header lines : 72

Galvano Electrochemical Impedance Spectroscopy

Run on channel : 8 (SN 14384)
User :
CE vs. WE compliance from -10 V to 10 V
Electrode connection : standard
Potential control : Ewe-Ece
Ewe ctrl range : min = 0,00 V, max = 5,00 V
Safety Limits :
	Do not start on E overload
Acquisition started on : 03/09/2022 13:55:05.456
Technique started on : 03/09/2022 13:55:06.380
Loaded Setting File :  C:\DATA\x_Data_VMP3\Extern\InES\Binbin\001_Testing_Profiles\20220308_(Form02C)EIS_charging_10bis16V_step_01V+(1C+EIS)50cycle.mps
Saved on :
	File : 20220309_(Form02C)EIS_charging_10bis16V_step_01V+(1C+EIS)50cycle_01_GEIS_C08.mpr
	Directory : C:\DATA\x_Data_VMP3\Extern\InES\Binbin\20220309_SSB_Cell_03_Form01\
	Host : 134.169.45.143
Device : VMP3 (SN 0787)
Address : 134.169.45.150
EC-Lab for windows v11.42 (software)
Internet server v11.40 (firmware)
Command interpretor v11.40 (firmware)
Electrode material :
Initial state :
Electrolyte :
Comments :
Electrode surface area : 0,000 cm²
Characteristic mass : 0,001 g
Equivalent Weight : 0,000 g/eq.
Density : 0,000 g/cm3
Volume (V) : 0,001 cm³
Record Ece
Record Power
Cycle Definition : Charge/Discharge alternance
Mode                Single sine
Is                  0,000
unit Is             µA
vs.                 <None>
tIs (h:m:s)         0:00:0,0000
record              0
dE (mV)             0,000
dt (s)              0,000
fi                  1,000
unit fi             MHz
ff                  5,000
unit ff             mHz
Nd                  6
Points              per decade
spacing             Logarithmic
Ia/Va               Ia
Ia                  5,000
unit  Ia            µA
va pourcent         0,10
pw                  0,10
Na                  2
corr                0
E range min (V)     0,000
E range max (V)     5,000
I Range             10 µA
Bandwidth           5
nc cycles           0
goto Ns'            0
nr cycles           0
inc. cycle          0

Number of loops : 1
Loop 0 from point number 0 to 49

freq/Hz	Re(Z)/Ohm	-Im(Z)/Ohm	|Z|/Ohm	Phase(Z)/deg	time/s	<Ewe>/V	<I>/mA	Cs/µF	Cp/µF	cycle number	|Ewe|/V	|I|/A	Ns	I Range	(Q-Qo)/mA.h	<Ece>/V	|Ece|/V	Phase(Zce)/deg	|Zce|/Ohm	Re(Zce)/Ohm	-Im(Zce)/Ohm	Phase(Zwe-ce)/deg	|Zwe-ce|/Ohm	Re(Zwe-ce)/Ohm	-Im(Zwe-ce)/Ohm	P/W	Re(Y)/Ohm-1	Im(Y)/Ohm-1	|Y|/Ohm-1	Phase(Y)/deg	dq/mA.h
1,0000186E+006	-2,9282984E+001	4,9702099E+001	5,7687016E+001	-1,2050532E+002	9,236000438977499E-001	1,3574383E+001	1,6341744E-005	3,2021180E-003	2,3770081E-003	1,000000000000000E+000	2,9493280E-004	5,1126376E-006	0	14	1,236428588441640E-009	1,3588119E+001	1,7443013E-004	3,6664639E+001	3,4117443E+001	2,7367113E+001	-2,0372557E+001	-9,3737381E+001	2,9392050E+001	-1,9158707E+000	2,9329542E+001	2,2182910E-007	-8,7995250E-003	1,4935459E-002	1,7334923E-002	1,2050532E+002	1,236428588441640E-009
3,1029172E+005	1,4666192E+001	3,6423309E+001	3,9265182E+001	-6,8067352E+001	1,947600092535140E+000	1,3574373E+001	1,9559533E-005	1,4082201E-002	1,2117530E-002	1,000000000000000E+000	1,7686503E-004	4,5043730E-006	0	14	2,547310971320055E-009	1,3590203E+001	2,0548228E-004	-6,3582226E+001	4,5618397E+001	2,0296221E+001	4,0854641E+001	-6,5656853E+001	8,4818939E+001	3,4962414E+001	7,7277954E+001	2,6550839E-007	9,5126620E-003	2,3624584E-002	2,5467856E-002	6,8067352E+001	9,723100929666846E-010
9,6283031E+004	8,2410192E+000	-7,0371633E+000	1,0836792E+001	4,0494644E+001	2,840600134950364E+000	1,3574356E+001	1,4370277E-005	-2,3489445E-001	-9,9052750E-002	1,000000000000000E+000	5,1833642E-005	4,7831168E-006	0	14	3,500940592276594E-009	1,3588961E+001	7,5500226E-004	-6,8730560E+001	1,5784734E+002	5,7259789E+001	1,4709554E+002	-6,4936012E+001	1,5461792E+002	6,5500809E+001	1,4005836E+002	1,9506726E-007	7,0174523E-002	-5,9923358E-002	9,2278235E-002	-4,0494644E+001	-7,431226119677271E-010
2,9876783E+004	1,7786674E+000	-3,8666773E+000	4,2561545E+000	6,5297623E+001	3,995600189809920E+000	1,3574484E+001	1,5628302E-005	-1,3776801E+000	-1,1370759E+000	1,000000000000000E+000	2,0156958E-005	4,7359554E-006	0	14	2,358113775320211E-009	1,3589241E+001	1,7500645E-003	-6,4437729E+001	3,6952725E+002	1,5944795E+002	3,3335678E+002	-6,3926498E+001	3,6682117E+002	1,6122662E+002	3,2949011E+002	2,1214613E-007	9,8188348E-002	-2,1345344E-001	2,3495388E-001	-6,5297623E+001	-5,964817098604018E-009
9,2692256E+003	-7,6457095E-001	1,9799854E+000	2,1224775E+000	-1,1111406E+002	5,150600244669477E+000	1,3574491E+001	1,4072445E-005	8,6719093E+000	7,5466194E+000	1,000000000000000E+000	1,0087198E-005	4,7525582E-006	0	14	1,584226618282022E-009	1,3588880E+001	4,0071723E-003	-6,1583752E+001	8,4316113E+002	4,0123816E+002	7,4157172E+002	-6,1693295E+001	8,4454022E+002	4,0047360E+002	7,4355170E+002	1,9102627E-007	-1,6971946E-001	4,3951711E-001	4,7114751E-001	1,1111406E+002	9,322192155044224E-010
2,8779956E+003	2,0973146E+000	-4,0623239E-001	2,1362944E+000	1,0961975E+001	6,362600302236388E+000	1,3574262E+001	4,8641868E-006	-1,3613049E+002	-4,9224615E+000	1,000000000000000E+000	9,8104956E-006	4,5922957E-006	0	14	1,207915195434200E-008	1,3592929E+001	8,5588843E-003	-5,5996296E+001	1,8637485E+003	1,0422949E+003	1,5450502E+003	-5,5935886E+001	1,8645857E+003	1,0443922E+003	1,5446439E+003	6,6027745E-008	4,5955914E-001	-8,9012772E-002	4,6810028E-001	-1,0961975E+001	5,545686070996049E-009
8,9299957E+002	1,5891711E+000	5,7268481E+000	5,9432530E+000	-7,4490936E+001	7,929600376664894E+000	1,3574207E+001	7,0869546E-006	3,1120977E+001	2,8895891E+001	1,000000000000000E+000	2,8455148E-005	4,7878070E-006	0	14	5,590381639346257E-009	1,3576653E+001	1,7848533E-002	-4,7665920E+001	3,7279141E+003	2,5105725E+003	2,7557883E+003	-4,7707081E+001	3,7332188E+003	2,5121616E+003	2,7615151E+003	9,6199791E-008	4,4990651E-002	1,6213144E-001	1,6825803E-001	7,4490936E+001	-3,631201818481931E-011
2,7686047E+002	7,4505892E+000	4,1911945E+000	8,5485315E+000	-2,9359144E+001	9,260600439884001E+000	1,3574419E+001	7,1399436E-006	1,3715807E+002	3,2969620E+001	1,000000000000000E+000	4,0728399E-005	4,7643734E-006	0	14	1,061219765978826E-008	1,3614698E+001	3,1149326E-002	-3,7715904E+001	6,5379692E+003	5,1718853E+003	3,9995808E+003	-3,7705029E+001	6,5464272E+003	5,1793359E+003	4,0037720E+003	9,6920587E-008	1,0195477E-001	5,7352819E-002	1,1697915E-001	2,9359144E+001	1,722330585304614E-009
8,5907173E+001	-3,1712503E+000	7,5614753E+000	8,1995573E+000	-1,1275297E+002	1,059060050305561E+001	1,3574343E+001	7,6497272E-006	2,4501021E+002	2,0836099E+002	1,000000000000000E+000	3,9043538E-005	4,7616641E-006	0	14	1,790991670105137E-008	1,3570278E+001	4,7505289E-002	-2,7620148E+001	9,9766152E+003	8,8396865E+003	4,6252349E+003	-2,7667063E+001	9,9773145E+003	8,8365156E+003	4,6327964E+003	1,0384002E-007	-4,7168244E-002	1,1246716E-001	1,2195780E-001	1,1275297E+002	5,008557103653605E-009
2,6682035E+001	8,5620613E+000	7,2873640E+000	1,1243423E+001	-4,0401855E+001	1,191860056613223E+001	1,3574482E+001	5,9968429E-006	8,1852264E+002	3,4385431E+002	1,000000000000000E+000	5,3560532E-005	4,7637209E-006	0	14	1,597517435869930E-008	1,3530548E+001	6,3108854E-002	-1,8758673E+001	1,3247807E+004	1,2544103E+004	4,2602666E+003	-1,8776594E+001	1,3258259E+004	1,2552665E+004	4,2675542E+003	8,1404039E-008	6,7730024E-002	5,7646550E-002	8,8940881E-002	4,0401855E+001	3,945071652279037E-009
[...]
2,5682116E+000	2,2807518E+001	9,7849169E+000	2,4817886E+001	-2,3220375E+001	1,512960071864654E+001	1,3574548E+001	6,9044631E-006	6,3333315E+003	9,8450269E+002	1,000000000000000E+000	1,1819459E-004	4,7624762E-006	0	14	2,604725389912548E-008	1,3655951E+001	8,4186882E-002	-1,1505884E+001	1,7677123E+004	1,7321887E+004	3,5260303E+003	-1,1522195E+001	1,7701424E+004	1,7344693E+004	3,5358152E+003	9,3724964E-008	3,7029549E-002	1,5886474E-002	4,0293518E-002	2,3220375E+001	-4,046286212089356E-008
7,9621863E-001	1,7983145E+001	2,4609027E+000	1,8150745E+001	-7,7922382E+000	2,083560098966700E+001	1,3574559E+001	7,5977505E-006	8,1225680E+004	1,4931152E+003	1,000000000000000E+000	8,6445667E-005	4,7626513E-006	0	14	-1,293975755839811E-007	1,3565267E+001	9,6157216E-002	-1,4774163E+001	2,0189850E+004	1,9522342E+004	5,1486089E+003	-1,4767909E+001	2,0207865E+004	1,9540324E+004	5,1510698E+003	1,0313612E-007	5,4585427E-002	7,4697402E-003	5,5094156E-002	7,7922382E+000	2,527674073942560E-008
2,4724665E-001	3,0973658E+001	1,2007318E+001	3,3219620E+001	-2,1189432E+001	3,908860185663798E+001	1,3574330E+001	6,9843086E-006	5,3609738E+004	7,0040049E+003	1,000000000000000E+000	1,5820512E-004	4,7624003E-006	0	14	9,220457922832187E-007	1,3496712E+001	1,1741870E-001	-2,2116774E+001	2,4655361E+004	2,2841182E+004	9,2826328E+003	-2,2115524E+001	2,4688578E+004	2,2872156E+004	9,2946396E+003	9,4807312E-008	2,8067464E-002	1,0880697E-002	3,0102693E-002	2,1189432E+001	4,471714193017912E-007
7,6773763E-002	2,7003801E+001	2,3960180E+001	3,6101185E+001	-4,1582298E+001	9,778560464459588E+001	1,3574357E+001	6,9768921E-006	8,6520141E+004	3,8111363E+004	1,000000000000000E+000	1,7192926E-004	4,7624271E-006	0	14	-1,215637720188826E-006	1,3739100E+001	1,6304143E-001	-3,2778728E+001	3,4234945E+004	2,8783635E+004	1,8534666E+004	-3,2787968E+001	3,4270621E+004	2,8810639E+004	1,8558627E+004	9,4706827E-008	2,0719629E-002	1,8384304E-002	2,7699921E-002	4,1582298E+001	-1,661066353373043E-006
2,3795672E-002	4,8832306E+001	3,3553768E+001	5,9249046E+001	-3,4493824E+001	2,868976136269339E+002	1,3574812E+001	6,8378272E-006	1,9933375E+005	6,3929414E+004	1,000000000000000E+000	2,8216821E-004	4,7624094E-006	0	14	-4,269281277057530E-006	1,3626044E+001	2,5215104E-001	-4,0780460E+001	5,2946109E+004	4,0091738E+004	3,4582410E+004	-4,0773449E+001	5,3005004E+004	4,0140570E+004	3,4615965E+004	9,2822219E-008	1,3910556E-002	9,5582530E-003	1,6877908E-002	3,4493824E+001	1,224109061831225E-006
7,3873415E-003	6,7410248E+001	6,0638386E+001	9,0670586E+001	-4,1972729E+001	8,961926425668935E+002	1,3574842E+001	7,0135020E-006	3,5529109E+005	1,5890836E+005	1,000000000000000E+000	4,3179313E-004	4,7622184E-006	0	14	3,038109551584653E-005	1,3221290E+001	3,7785202E-001	-4,5679405E+001	7,9343695E+004	5,5435258E+004	5,6765781E+004	-4,5675175E+001	7,9434172E+004	5,5502668E+004	5,6826418E+004	9,5207184E-008	8,1996080E-003	7,3758960E-003	1,1028935E-002	4,1972729E+001	1,495738080386071E-005
5,0018891E-003	1,4108186E+002	6,5165756E+001	1,5540485E+002	-2,4792231E+001	1,317534662579565E+003	1,3575616E+001	5,6160429E-006	4,8827741E+005	8,5857133E+004	1,000000000000000E+000	7,4010465E-004	4,7624299E-006	0	14	3,847404426201299E-005	1,3298745E+001	4,3025470E-001	-4,5952934E+001	9,0343523E+004	6,2811246E+004	6,4936117E+004	-4,5917412E+001	9,0488461E+004	6,2952328E+004	6,5001281E+004	7,6241243E-008	5,8417376E-003	2,6983006E-003	6,4348057E-003	2,4792231E+001	8,092948746166458E-006

File: 20220309_(Form02C)EIS_charging_10bis16V_step_01V+(1C+EIS)50cycle_02_GCPL6_C08.mpt
EC-Lab ASCII FILE
Nb header lines : 76

Galvanostatic Cycling with Potential Limitation 6

Run on channel : 8 (SN 14384)
User :
CE vs. WE compliance from -10 V to 10 V
Electrode connection : standard
Potential control : Ewe-Ece
Ecell ctrl range : min = 0,00 V, max = 5,00 V
Safety Limits :
	Do not start on E overload
Acquisition started on : 03/09/2022 13:55:05.456
Technique started on : 03/09/2022 14:17:03.042
Loaded Setting File :  C:\DATA\x_Data_VMP3\Extern\InES\Binbin\001_Testing_Profiles\20220308_(Form02C)EIS_charging_10bis16V_step_01V+(1C+EIS)50cycle.mps
Saved on :
	File : 20220309_(Form02C)EIS_charging_10bis16V_step_01V+(1C+EIS)50cycle_02_GCPL6_C08.mpr
	Directory : C:\DATA\x_Data_VMP3\Extern\InES\Binbin\20220309_SSB_Cell_03_Form01\
	Host : 134.169.45.143
Device : VMP3 (SN 0787)
Address : 134.169.45.150
EC-Lab for windows v11.42 (software)
Internet server v11.40 (firmware)
Command interpretor v11.40 (firmware)
Electrode material :
Initial state :
Electrolyte :
Comments :
Electrode surface area : 0,000 cm²
Characteristic mass : 0,001 g
Equivalent Weight : 0,000 g/eq.
Density : 0,000 g/cm3
Volume (V) : 0,001 cm³
Record Ece
Record Power
Cycle Definition : Charge/Discharge alternance
Ns                  0                   1
Set I/C             I                   I
Is                  0,000               20,000
unit Is             mA                  µA
vs.                 <None>              <None>
N                   1,00                1,00
I sign              < 0                 > 0
t1 (h:m:s)          0:00:0,0000         20:00:0,0000
I Range             100 µA              100 µA
Bandwidth           5                   5
dE1 (mV)            0,00                0,00
dt1 (s)             0,0000              5,0000
EM (V)              0,000               1,000
tM (h:m:s)          0:00:0,0000         10:00:0,0000
Im                  0,000               10,000
unit Im             mA                  µA
dI/dt               0,000               0,000
dunit dI/dt         mA/s                mA/s
E range min (V)     0,000               0,000
E range max (V)     5,000               5,000
dq                  0,000               1,000
unit dq             mA.h                mA.h
dtq (s)             0,0000              120,0000
dQM                 0,000               0,000
unit dQM            mA.h                mA.h
dxM                 0,000               0,000
delta SoC (%)       pass                pass
tR (h:m:s)          0:00:10,0000        0:01:0,0000
dER/dt (mV/h)       0,0                 0,1
dER (mV)            0,00                0,00
dtR (s)             1,0000              120,0000
EL (V)              pass                pass
goto Ns'            0                   0
nc cycles           0                   0

Number of loops : 1
Loop 0 from point number 0 to 80

mode	ox/red	error	control changes	Ns changes	counter inc.	Ns	time/s	dq/mA.h	(Q-Qo)/mA.h	control/V/mA	Ewe/V	I Range	Q charge/discharge/mA.h	half cycle	Ece/V	P/W	Energy charge/W.h	Energy discharge/W.h	Capacitance charge/µF	Capacitance discharge/µF	<I>/mA	Q discharge/mA.h	Q charge/mA.h	Capacity/mA.h	Efficiency/%	control/V	control/mA	cycle number	 Ecell/V
3	0	0	0	0	0	0	1,317586462581967E+003	0,000000000000000E+000	0,000000000000000E+000	0,0000000E+000	1,0514146E+001	14	0,000000000000000E+000	0	1,3590477E+001	0,0000000E+000	0,000000000000000E+000	0,000000000000000E+000	0,000000000000000E+000	0,000000000000000E+000	0,000000000000000E+000	0,000000000000000E+000	0,000000000000000E+000	0,000000000000000E+000	0,0000000E+000	0,0000000E+000	0,0000000E+000	0,000000000000000E+000	-3,0763311E+000
3	0	0	0	0	0	0	1,321586462480918E+003	0,000000000000000E+000	0,000000000000000E+000	0,0000000E+000	1,3847536E+001	14	0,000000000000000E+000	0	1,3576987E+001	0,0000000E+000	0,000000000000000E+000	0,000000000000000E+000	0,000000000000000E+000	0,000000000000000E+000	0,000000000000000E+000	0,000000000000000E+000	0,000000000000000E+000	0,000000000000000E+000	0,0000000E+000	0,0000000E+000	0,0000000E+000	0,000000000000000E+000	2,7054882E-001
3	0	0	0	0	0	0	1,325586462379870E+003	0,000000000000000E+000	0,000000000000000E+000	0,0000000E+000	1,3836991E+001	14	0,000000000000000E+000	0	1,3576987E+001	0,0000000E+000	0,000000000000000E+000	0,000000000000000E+000	0,000000000000000E+000	0,000000000000000E+000	0,000000000000000E+000	0,000000000000000E+000	0,000000000000000E+000	0,000000000000000E+000	0,0000000E+000	0,0000000E+000	0,0000000E+000	0,000000000000000E+000	2,6000404E-001
1	1	0	1	0	0	1	1,332586662203030E+003	2,785794585073988E-005	2,786015936121759E-005	2,0000001E-002	1,3577096E+001	13	2,786015936121759E-005	0	1,2720053E+001	2,7232562E-004	3,782532779439276E-007	0,000000000000000E+000	3,274508865749026E+001	0,000000000000000E+000	2,005772151923338E-002	0,000000000000000E+000	2,786015936121759E-005	2,786015936121759E-005	0,0000000E+000	0,0000000E+000	2,0000001E-002	0,000000000000000E+000	8,5704327E-001
1	1	0	1	0	0	1	1,352586661697787E+003	2,785806368436250E-005	1,392930736346170E-004	2,0000001E-002	1,3578178E+001	13	1,392930736346170E-004	0	1,2638589E+001	2,7234846E-004	1,891237801054561E-006	0,000000000000000E+000	1,636585304315585E+002	0,000000000000000E+000	2,005780635944381E-002	0,000000000000000E+000	1,392930736346170E-004	1,392930736346170E-004	0,0000000E+000	0,0000000E+000	2,0000001E-002	0,000000000000000E+000	9,3958950E-001
1	1	0	1	0	0	1	1,372586661192545E+003	2,785799615778443E-005	2,507249070038605E-004	2,0000001E-002	1,3577938E+001	13	2,507249070038605E-004	0	1,2608521E+001	2,7234299E-004	3,404323800951465E-006	0,000000000000000E+000	2,946053772051177E+002	0,000000000000000E+000	2,005775774030637E-002	0,000000000000000E+000	2,507249070038605E-004	2,507249070038605E-004	0,0000000E+000	0,0000000E+000	2,0000001E-002	0,000000000000000E+000	9,6941757E-001
1	1	0	1	0	0	1	1,392586660687302E+003	2,785774736416837E-005	3,621566641792241E-004	2,0000001E-002	1,3577296E+001	13	3,621566641792241E-004	0	1,2589077E+001	2,7232768E-004	4,917373033369221E-006	0,000000000000000E+000	4,256284603396877E+002	0,000000000000000E+000	2,005757860889828E-002	0,000000000000000E+000	3,621566641792241E-004	3,621566641792241E-004	0,0000000E+000	0,0000000E+000	2,0000001E-002	0,000000000000000E+000	9,8821926E-001
1	1	0	1	0	0	1	1,410568460233044E+003	1,661335377602114E-005	4,623437427449972E-004	2,0000001E-002	1,3578500E+001	13	4,623437427449972E-004	0	1,2578293E+001	2,7235359E-004	6,277696202970206E-006	0,000000000000000E+000	5,431609745193219E+002	0,000000000000000E+000	2,005770846621341E-002	0,000000000000000E+000	4,623437427449972E-004	4,623437427449972E-004	0,0000000E+000	0,0000000E+000	2,0000001E-002	0,000000000000000E+000	1,0002069E+000
2	1	0	0	0	0	1	1,650570254170088E+003	5,995333814733765E-004	1,686626173951456E-003	1,0000278E+000	1,3577858E+001	13	1,686626173951456E-003	0	1,2580978E+001	2,4421097E-004	2,290022076732563E-005	0,000000000000000E+000	1,981861868312208E+003	0,000000000000000E+000	1,798597192194605E-002	0,000000000000000E+000	1,686626173951456E-003	1,686626173951456E-003	0,0000000E+000	1,0000278E+000	0,0000000E+000	0,000000000000000E+000	9,9687958E-001
[...]
2	1	0	0	0	0	1	4,050574193540888E+003	5,118154774648655E-004	1,323859758680190E-002	1,0000278E+000	1,3579061E+001	13	1,323859758680190E-002	0	1,2582101E+001	2,0849885E-004	1,797599759331188E-004	0,000000000000000E+000	1,554984589296962E+004	0,000000000000000E+000	1,535443912110050E-002	0,000000000000000E+000	1,323859758680190E-002	1,323859758680190E-002	0,0000000E+000	1,0000278E+000	0,0000000E+000	0,000000000000000E+000	9,9695969E-001
2	1	0	0	0	0	1	4,530574387131841E+003	4,803294403396754E-004	1,520748140267298E-002	1,0000278E+000	1,3579943E+001	13	1,520748139310887E-002	0	1,2583023E+001	1,9568538E-004	2,064974464849749E-004	0,000000000000000E+000	1,785732573163827E+004	0,000000000000000E+000	1,440988338465351E-002	0,000000000000000E+000	1,520748139310887E-002	1,520748139310887E-002	0,0000000E+000	1,0000278E+000	0,0000000E+000	0,000000000000000E+000	9,9691963E-001
2	1	0	0	0	0	1	5,010574381320388E+003	4,484295520830072E-004	1,704896736235084E-002	1,0000278E+000	1,3579502E+001	13	1,704896732536864E-002	0	1,2582502E+001	1,8268351E-004	2,315057616667247E-004	0,000000000000000E+000	2,002256092735423E+004	0,000000000000000E+000	1,345288672536692E-002	0,000000000000000E+000	1,704896732536864E-002	1,704896732536864E-002	0,0000000E+000	1,0000278E+000	0,0000000E+000	0,000000000000000E+000	9,9699974E-001
2	1	0	0	0	0	1	5,490574375508935E+003	4,171459716724543E-004	1,876408322230049E-002	1,0000278E+000	1,3580705E+001	13	1,876408315984983E-002	0	1,2583625E+001	1,6995409E-004	2,547993408982803E-004	0,000000000000000E+000	2,202817651525156E+004	0,000000000000000E+000	1,251437930168764E-002	0,000000000000000E+000	1,876408315984983E-002	1,876408315984983E-002	0,0000000E+000	1,0000278E+000	0,0000000E+000	0,000000000000000E+000	9,9707985E-001
2	1	0	0	0	0	1	5,970574369697497E+003	3,880121385828695E-004	2,035925562147082E-002	1,0000278E+000	1,3582629E+001	13	2,035925553538661E-002	0	1,2585670E+001	1,5810675E-004	2,764639449835303E-004	0,000000000000000E+000	2,388584571065976E+004	0,000000000000000E+000	1,164036429841823E-002	0,000000000000000E+000	2,035925553538661E-002	2,035925553538661E-002	0,0000000E+000	1,0000278E+000	0,0000000E+000	0,000000000000000E+000	9,9695969E-001
2	1	0	0	0	0	1	6,450574363886044E+003	3,601694216487101E-004	2,184060959063077E-002	1,0000278E+000	1,3582629E+001	13	2,184060948253103E-002	0	1,2585910E+001	1,4676143E-004	2,965843794843973E-004	0,000000000000000E+000	2,562379687311107E+004	0,000000000000000E+000	1,080508278028053E-002	0,000000000000000E+000	2,184060948253103E-002	2,184060948253103E-002	0,0000000E+000	1,0000278E+000	0,0000000E+000	0,000000000000000E+000	9,9671936E-001
2	1	0	0	0	0	1	6,878409558706160E+003	1,894491405340118E-004	2,307028075655063E-002	1,0000278E+000	1,3581987E+001	13	2,307028063014662E-002	0	1,2584867E+001	1,3655366E-004	3,132868093452457E-004	0,000000000000000E+000	2,707213181011073E+004	0,000000000000000E+000	1,005402673213548E-002	0,000000000000000E+000	2,307028063014662E-002	2,307028063014662E-002	0,0000000E+000	1,0000278E+000	0,0000000E+000	0,000000000000000E+000	9,9711990E-001
3	1	0	1	0	0	1	6,938409957979718E+003	0,000000000000000E+000	2,307028242057810E-002	0,0000000E+000	1,4459103E+001	14	2,307028118373759E-002	0	1,3582039E+001	0,0000000E+000	3,132868168639117E-004	0,000000000000000E+000	2,707531396367148E+004	0,000000000000000E+000	0,000000000000000E+000	0,000000000000000E+000	2,307028118373759E-002	2,307028118373759E-002	0,0000000E+000	0,0000000E+000	0,0000000E+000	0,000000000000000E+000	8,7706375E-001